,subj_idx,trial_idx,S,X,M,v,a,z,t,rt,response
0,1,0,-1,-1,-0.37595361094558244,-2.0632222852615474,1.2651604199693844,0.498333796071443,0.7865593462961691,1.2225573062896729,0.0
1,1,1,1,1,0.2579478958580226,0.5836409282515336,1.2651604199693844,0.498333796071443,0.7865593462961691,1.4695541858673096,1.0
2,1,2,-1,1,0.04025574269223353,-1.553180484120274,1.2651604199693844,0.498333796071443,0.7865593462961691,3.4105515480041504,0.0
3,1,3,1,1,0.538047782655362,0.5836409282515336,1.2651604199693844,0.498333796071443,0.7865593462961691,0.9875595569610596,1.0
4,1,4,-1,-1,0.3562273236949478,-2.0632222852615474,1.2651604199693844,0.498333796071443,0.7865593462961691,1.8555532693862915,0.0
5,1,5,-1,1,-0.024854286574865547,-1.553180484120274,1.2651604199693844,0.498333796071443,0.7865593462961691,1.170557975769043,0.0
6,1,6,1,1,0.4406596603912194,0.5836409282515336,1.2651604199693844,0.498333796071443,0.7865593462961691,1.144558310508728,1.0
7,1,7,1,1,1.9087848506984348,0.5836409282515336,1.2651604199693844,0.498333796071443,0.7865593462961691,1.3905551433563232,1.0
8,1,8,-1,-1,0.9800117020393286,-2.0632222852615474,1.2651604199693844,0.498333796071443,0.7865593462961691,1.053559422492981,0.0
9,1,9,-1,1,0.7274304100141851,-1.553180484120274,1.2651604199693844,0.498333796071443,0.7865593462961691,1.2575567960739136,0.0
10,1,10,-1,-1,-2.9460318313695835,-2.0632222852615474,1.2651604199693844,0.498333796071443,0.7865593462961691,1.167557954788208,0.0
11,1,11,1,1,1.238179159750867,0.5836409282515336,1.2651604199693844,0.498333796071443,0.7865593462961691,5.51039981842041,1.0
12,1,12,-1,1,2.0706386170778726,-1.553180484120274,1.2651604199693844,0.498333796071443,0.7865593462961691,1.3295559883117676,0.0
13,1,13,1,1,1.5051986171561542,0.5836409282515336,1.2651604199693844,0.498333796071443,0.7865593462961691,1.7165509462356567,1.0
14,1,14,-1,1,1.104439061683838,-1.553180484120274,1.2651604199693844,0.498333796071443,0.7865593462961691,1.1905577182769775,0.0
15,1,15,1,-1,-0.2895935933870263,0.07359912711026051,1.2651604199693844,0.498333796071443,0.7865593462961691,2.4645817279815674,1.0
16,1,16,-1,1,1.4535286183177891,-1.553180484120274,1.2651604199693844,0.498333796071443,0.7865593462961691,1.0395596027374268,0.0
17,1,17,-1,-1,-2.099888023042562,-2.0632222852615474,1.2651604199693844,0.498333796071443,0.7865593462961691,1.4215548038482666,0.0
18,1,18,1,-1,-2.397157082274415,0.07359912711026051,1.2651604199693844,0.498333796071443,0.7865593462961691,5.186423301696777,1.0
19,1,19,-1,-1,-2.141227994559072,-2.0632222852615474,1.2651604199693844,0.498333796071443,0.7865593462961691,1.3255560398101807,0.0
20,1,20,-1,1,0.9895397204086054,-1.553180484120274,1.2651604199693844,0.498333796071443,0.7865593462961691,1.6805514097213745,0.0
21,1,21,-1,1,0.07566322205222953,-1.553180484120274,1.2651604199693844,0.498333796071443,0.7865593462961691,1.8395525217056274,0.0
22,1,22,-1,-1,-1.5432243775237744,-2.0632222852615474,1.2651604199693844,0.498333796071443,0.7865593462961691,1.733550786972046,0.0
23,1,23,-1,-1,0.3750383382805611,-2.0632222852615474,1.2651604199693844,0.498333796071443,0.7865593462961691,1.3485556840896606,0.0
24,1,24,1,-1,-2.531973799549546,0.07359912711026051,1.2651604199693844,0.498333796071443,0.7865593462961691,5.053432464599609,1.0
25,1,25,-1,-1,-0.8949697721008575,-2.0632222852615474,1.2651604199693844,0.498333796071443,0.7865593462961691,1.2305572032928467,0.0
26,1,26,1,-1,1.2016968958558967,0.07359912711026051,1.2651604199693844,0.498333796071443,0.7865593462961691,1.3155560493469238,1.0
27,1,27,-1,1,1.0320666999204426,-1.553180484120274,1.2651604199693844,0.498333796071443,0.7865593462961691,1.3625555038452148,0.0
28,1,28,1,-1,-2.7661001126049576,0.07359912711026051,1.2651604199693844,0.498333796071443,0.7865593462961691,2.374577522277832,1.0
29,1,29,-1,-1,-2.3546078786405493,-2.0632222852615474,1.2651604199693844,0.498333796071443,0.7865593462961691,0.9965596199035645,0.0
30,1,30,1,-1,0.9047708868649822,0.07359912711026051,1.2651604199693844,0.498333796071443,0.7865593462961691,3.4035520553588867,1.0
31,1,31,-1,-1,-2.0290313124160813,-2.0632222852615474,1.2651604199693844,0.498333796071443,0.7865593462961691,1.2395570278167725,0.0
32,1,32,-1,1,-0.3466364740304462,-1.553180484120274,1.2651604199693844,0.498333796071443,0.7865593462961691,1.0925589799880981,0.0
33,1,33,-1,1,1.182116131205828,-1.553180484120274,1.2651604199693844,0.498333796071443,0.7865593462961691,1.4175548553466797,0.0
34,1,34,-1,-1,-0.5738807243641726,-2.0632222852615474,1.2651604199693844,0.498333796071443,0.7865593462961691,1.236557126045227,0.0
35,1,35,1,1,-0.1372981340383288,0.5836409282515336,1.2651604199693844,0.498333796071443,0.7865593462961691,2.8085951805114746,1.0
36,1,36,-1,1,4.029825955485503,-1.553180484120274,1.2651604199693844,0.498333796071443,0.7865593462961691,1.4745540618896484,0.0
37,1,37,-1,-1,-2.374467780071533,-2.0632222852615474,1.2651604199693844,0.498333796071443,0.7865593462961691,1.0625593662261963,0.0
38,1,38,1,1,0.09270022015629353,0.5836409282515336,1.2651604199693844,0.498333796071443,0.7865593462961691,1.546553134918213,1.0
39,1,39,-1,1,0.14801974921939653,-1.553180484120274,1.2651604199693844,0.498333796071443,0.7865593462961691,1.1375583410263062,0.0
40,1,40,1,-1,-0.9534110154909272,0.07359912711026051,1.2651604199693844,0.498333796071443,0.7865593462961691,2.0195608139038086,0.0
41,1,41,-1,1,0.5595711455042971,-1.553180484120274,1.2651604199693844,0.498333796071443,0.7865593462961691,1.7355506420135498,0.0
42,1,42,-1,-1,-1.432586193182122,-2.0632222852615474,1.2651604199693844,0.498333796071443,0.7865593462961691,1.034559726715088,0.0
43,1,43,-1,-1,-1.43905853807015,-2.0632222852615474,1.2651604199693844,0.498333796071443,0.7865593462961691,1.5135536193847656,0.0
44,1,44,-1,-1,0.4375451706805611,-2.0632222852615474,1.2651604199693844,0.498333796071443,0.7865593462961691,1.6365519762039185,0.0
45,1,45,1,1,0.4066402628311706,0.5836409282515336,1.2651604199693844,0.498333796071443,0.7865593462961691,1.3385558128356934,1.0
46,1,46,1,-1,-0.2251713384534212,0.07359912711026051,1.2651604199693844,0.498333796071443,0.7865593462961691,1.5445531606674194,1.0
47,1,47,1,1,-0.36965683219180145,0.5836409282515336,1.2651604199693844,0.498333796071443,0.7865593462961691,2.2965738773345947,0.0
48,1,48,-1,1,1.1029066292735958,-1.553180484120274,1.2651604199693844,0.498333796071443,0.7865593462961691,2.361577033996582,0.0
49,1,49,1,1,2.9100810602936464,0.5836409282515336,1.2651604199693844,0.498333796071443,0.7865593462961691,4.162497043609619,1.0
50,1,50,1,1,0.586026369432139,0.5836409282515336,1.2651604199693844,0.498333796071443,0.7865593462961691,2.5245845317840576,1.0
51,1,51,1,1,1.9558797350734454,0.5836409282515336,1.2651604199693844,0.498333796071443,0.7865593462961691,3.79952335357666,1.0
52,1,52,1,1,1.4171194449455942,0.5836409282515336,1.2651604199693844,0.498333796071443,0.7865593462961691,3.3185582160949707,1.0
53,1,53,1,1,1.6624607930908715,0.5836409282515336,1.2651604199693844,0.498333796071443,0.7865593462961691,2.2015695571899414,1.0
54,1,54,-1,-1,-1.8641467019195035,-2.0632222852615474,1.2651604199693844,0.498333796071443,0.7865593462961691,1.7025511264801025,0.0
55,1,55,-1,1,2.6928873529878876,-1.553180484120274,1.2651604199693844,0.498333796071443,0.7865593462961691,1.4125548601150513,0.0
56,1,56,1,-1,-1.786508666711391,0.07359912711026051,1.2651604199693844,0.498333796071443,0.7865593462961691,4.144498348236084,1.0
57,1,57,-1,-1,-1.3653077128929447,-2.0632222852615474,1.2651604199693844,0.498333796071443,0.7865593462961691,1.2825565338134766,0.0
58,1,58,-1,1,0.15741989975454662,-1.553180484120274,1.2651604199693844,0.498333796071443,0.7865593462961691,1.9545578956604004,0.0
59,1,59,1,-1,-2.9515551755571794,0.07359912711026051,1.2651604199693844,0.498333796071443,0.7865593462961691,2.8975887298583984,1.0
60,1,60,-1,-1,-2.388789077132232,-2.0632222852615474,1.2651604199693844,0.498333796071443,0.7865593462961691,1.0375596284866333,0.0
61,1,61,1,-1,-0.9539135254359852,0.07359912711026051,1.2651604199693844,0.498333796071443,0.7865593462961691,3.4075517654418945,1.0
62,1,62,-1,-1,-1.228156794344768,-2.0632222852615474,1.2651604199693844,0.498333796071443,0.7865593462961691,1.7635502815246582,0.0
63,1,63,1,1,1.6504123056762028,0.5836409282515336,1.2651604199693844,0.498333796071443,0.7865593462961691,3.2605624198913574,1.0
64,1,64,1,1,-0.14994893040037405,0.5836409282515336,1.2651604199693844,0.498333796071443,0.7865593462961691,1.6515517234802246,1.0
65,1,65,-1,-1,-1.1464884833145836,-2.0632222852615474,1.2651604199693844,0.498333796071443,0.7865593462961691,1.2995562553405762,0.0
66,1,66,1,1,0.0011564368260937874,0.5836409282515336,1.2651604199693844,0.498333796071443,0.7865593462961691,2.066563129425049,1.0
67,1,67,-1,1,0.14369742441418398,-1.553180484120274,1.2651604199693844,0.498333796071443,0.7865593462961691,1.6285520792007446,0.0
68,1,68,-1,1,1.7067786624712542,-1.553180484120274,1.2651604199693844,0.498333796071443,0.7865593462961691,1.1655579805374146,0.0
69,1,69,1,1,1.7983597072503499,0.5836409282515336,1.2651604199693844,0.498333796071443,0.7865593462961691,2.4565813541412354,1.0
70,1,70,-1,1,1.3480115053844441,-1.553180484120274,1.2651604199693844,0.498333796071443,0.7865593462961691,1.2075574398040771,0.0
71,1,71,1,-1,-0.006806635535329009,0.07359912711026051,1.2651604199693844,0.498333796071443,0.7865593462961691,1.5615530014038086,1.0
72,1,72,-1,-1,0.15094724335221987,-2.0632222852615474,1.2651604199693844,0.498333796071443,0.7865593462961691,1.1545581817626953,0.0
73,1,73,1,1,1.3831062472965032,0.5836409282515336,1.2651604199693844,0.498333796071443,0.7865593462961691,1.7125509977340698,1.0
74,1,74,1,1,0.23672184678760566,0.5836409282515336,1.2651604199693844,0.498333796071443,0.7865593462961691,2.645590305328369,1.0
75,1,75,1,1,-0.6717538054681613,0.5836409282515336,1.2651604199693844,0.498333796071443,0.7865593462961691,2.883589744567871,1.0
76,1,76,-1,1,-0.9142037383838626,-1.553180484120274,1.2651604199693844,0.498333796071443,0.7865593462961691,1.0305596590042114,0.0
77,1,77,-1,1,0.6529979649819553,-1.553180484120274,1.2651604199693844,0.498333796071443,0.7865593462961691,1.3025562763214111,0.0
78,1,78,1,1,-0.10170786425984679,0.5836409282515336,1.2651604199693844,0.498333796071443,0.7865593462961691,2.569586753845215,1.0
79,1,79,1,1,0.457094049586772,0.5836409282515336,1.2651604199693844,0.498333796071443,0.7865593462961691,2.0035600662231445,1.0
80,1,80,-1,1,1.5554040979937667,-1.553180484120274,1.2651604199693844,0.498333796071443,0.7865593462961691,1.1375583410263062,0.0
81,1,81,1,-1,0.9347162985056621,0.07359912711026051,1.2651604199693844,0.498333796071443,0.7865593462961691,1.1725579500198364,0.0
82,1,82,-1,1,0.030663224629913,-1.553180484120274,1.2651604199693844,0.498333796071443,0.7865593462961691,1.3525556325912476,0.0
83,1,83,1,1,1.965458620679358,0.5836409282515336,1.2651604199693844,0.498333796071443,0.7865593462961691,2.2835731506347656,1.0
84,1,84,1,1,2.6240431805426208,0.5836409282515336,1.2651604199693844,0.498333796071443,0.7865593462961691,2.139566421508789,0.0
85,1,85,1,1,1.0637299206463262,0.5836409282515336,1.2651604199693844,0.498333796071443,0.7865593462961691,1.2035574913024902,1.0
86,1,86,-1,1,1.2007297093507667,-1.553180484120274,1.2651604199693844,0.498333796071443,0.7865593462961691,1.1625580787658691,0.0
87,1,87,-1,1,1.5537238979851862,-1.553180484120274,1.2651604199693844,0.498333796071443,0.7865593462961691,1.236557126045227,0.0
88,1,88,-1,-1,-1.1666739918756637,-2.0632222852615474,1.2651604199693844,0.498333796071443,0.7865593462961691,1.3525556325912476,0.0
89,1,89,-1,1,-1.7800209748140166,-1.553180484120274,1.2651604199693844,0.498333796071443,0.7865593462961691,1.1215585470199585,0.0
90,1,90,-1,1,2.8559943993469314,-1.553180484120274,1.2651604199693844,0.498333796071443,0.7865593462961691,1.3455557823181152,0.0
91,1,91,1,1,1.2958417398898763,0.5836409282515336,1.2651604199693844,0.498333796071443,0.7865593462961691,3.272561550140381,1.0
92,1,92,-1,-1,-1.61451079087408,-2.0632222852615474,1.2651604199693844,0.498333796071443,0.7865593462961691,0.9885596036911011,0.0
93,1,93,1,-1,-0.3998697158256037,0.07359912711026051,1.2651604199693844,0.498333796071443,0.7865593462961691,1.7845500707626343,1.0
94,1,94,1,1,1.8616625770279054,0.5836409282515336,1.2651604199693844,0.498333796071443,0.7865593462961691,3.9235143661499023,1.0
95,1,95,1,-1,-1.3846917205985994,0.07359912711026051,1.2651604199693844,0.498333796071443,0.7865593462961691,2.2555718421936035,1.0
96,1,96,1,-1,-0.9639624783526701,0.07359912711026051,1.2651604199693844,0.498333796071443,0.7865593462961691,1.752550482749939,1.0
97,1,97,-1,1,0.8637579673103516,-1.553180484120274,1.2651604199693844,0.498333796071443,0.7865593462961691,1.101558804512024,0.0
98,1,98,-1,1,1.2619162027488982,-1.553180484120274,1.2651604199693844,0.498333796071443,0.7865593462961691,2.885589599609375,0.0
99,1,99,1,-1,0.06240973886168999,0.07359912711026051,1.2651604199693844,0.498333796071443,0.7865593462961691,2.5115838050842285,0.0
100,1,100,1,-1,-1.1854618047390026,0.07359912711026051,1.2651604199693844,0.498333796071443,0.7865593462961691,1.9535578489303589,0.0
101,1,101,-1,-1,-1.3611793579961655,-2.0632222852615474,1.2651604199693844,0.498333796071443,0.7865593462961691,1.2435569763183594,0.0
102,1,102,1,1,0.8454791258110133,0.5836409282515336,1.2651604199693844,0.498333796071443,0.7865593462961691,1.2785565853118896,1.0
103,1,103,1,-1,-2.53108048437569,0.07359912711026051,1.2651604199693844,0.498333796071443,0.7865593462961691,1.28455650806427,0.0
104,1,104,-1,1,2.198430294957999,-1.553180484120274,1.2651604199693844,0.498333796071443,0.7865593462961691,1.28455650806427,0.0
105,1,105,1,1,0.14977319083728313,0.5836409282515336,1.2651604199693844,0.498333796071443,0.7865593462961691,1.1335583925247192,1.0
106,1,106,-1,-1,-0.5861339591328589,-2.0632222852615474,1.2651604199693844,0.498333796071443,0.7865593462961691,1.5965524911880493,0.0
107,1,107,1,-1,-2.025153384823515,0.07359912711026051,1.2651604199693844,0.498333796071443,0.7865593462961691,1.2495568990707397,1.0
108,1,108,-1,-1,-2.256749913108731,-2.0632222852615474,1.2651604199693844,0.498333796071443,0.7865593462961691,1.241557002067566,0.0
109,1,109,-1,-1,-0.601983675512448,-2.0632222852615474,1.2651604199693844,0.498333796071443,0.7865593462961691,1.5175535678863525,0.0
110,1,110,-1,1,1.7291446341222692,-1.553180484120274,1.2651604199693844,0.498333796071443,0.7865593462961691,1.1175585985183716,0.0
111,1,111,1,-1,-1.3695517153892813,0.07359912711026051,1.2651604199693844,0.498333796071443,0.7865593462961691,1.1875576972961426,1.0
112,1,112,1,1,2.3106031643199234,0.5836409282515336,1.2651604199693844,0.498333796071443,0.7865593462961691,2.150567054748535,1.0
113,1,113,-1,-1,-1.621038826596756,-2.0632222852615474,1.2651604199693844,0.498333796071443,0.7865593462961691,1.5145535469055176,0.0
114,1,114,1,-1,-0.9641123132794458,0.07359912711026051,1.2651604199693844,0.498333796071443,0.7865593462961691,1.7985506057739258,0.0
115,1,115,1,-1,-0.1282689425754422,0.07359912711026051,1.2651604199693844,0.498333796071443,0.7865593462961691,3.1095733642578125,0.0
116,1,116,1,-1,-1.5931694638741405,0.07359912711026051,1.2651604199693844,0.498333796071443,0.7865593462961691,3.122572422027588,1.0
117,1,117,-1,-1,-1.5857616593298864,-2.0632222852615474,1.2651604199693844,0.498333796071443,0.7865593462961691,1.0045596361160278,0.0
118,1,118,-1,-1,-1.4135016876350757,-2.0632222852615474,1.2651604199693844,0.498333796071443,0.7865593462961691,1.4715540409088135,0.0
119,1,119,-1,-1,0.6810860410741895,-2.0632222852615474,1.2651604199693844,0.498333796071443,0.7865593462961691,1.4155547618865967,0.0
120,1,120,1,1,-1.171205310780321,0.5836409282515336,1.2651604199693844,0.498333796071443,0.7865593462961691,2.4465808868408203,1.0
121,1,121,1,1,1.3580031065123306,0.5836409282515336,1.2651604199693844,0.498333796071443,0.7865593462961691,3.649534225463867,1.0
122,1,122,1,1,-0.18782893622012042,0.5836409282515336,1.2651604199693844,0.498333796071443,0.7865593462961691,2.5225844383239746,1.0
123,1,123,1,1,2.4282792577856966,0.5836409282515336,1.2651604199693844,0.498333796071443,0.7865593462961691,3.588538646697998,0.0
124,1,124,1,-1,-0.9812190612261047,0.07359912711026051,1.2651604199693844,0.498333796071443,0.7865593462961691,3.230564594268799,1.0
125,1,125,1,1,2.0500326030168,0.5836409282515336,1.2651604199693844,0.498333796071443,0.7865593462961691,2.0245611667633057,1.0
126,1,126,1,1,1.0078298979458893,0.5836409282515336,1.2651604199693844,0.498333796071443,0.7865593462961691,2.341576099395752,1.0
127,1,127,-1,1,1.6835829750391718,-1.553180484120274,1.2651604199693844,0.498333796071443,0.7865593462961691,1.3685554265975952,0.0
128,1,128,-1,-1,-0.7192301497612961,-2.0632222852615474,1.2651604199693844,0.498333796071443,0.7865593462961691,0.9875595569610596,0.0
129,1,129,1,-1,-0.809972880263514,0.07359912711026051,1.2651604199693844,0.498333796071443,0.7865593462961691,1.5735528469085693,1.0
130,1,130,1,-1,-0.9218389733537424,0.07359912711026051,1.2651604199693844,0.498333796071443,0.7865593462961691,2.993581771850586,1.0
131,1,131,1,-1,-0.6982375373126881,0.07359912711026051,1.2651604199693844,0.498333796071443,0.7865593462961691,1.2265572547912598,1.0
132,1,132,-1,-1,-0.0490973990629594,-2.0632222852615474,1.2651604199693844,0.498333796071443,0.7865593462961691,1.4105548858642578,0.0
133,1,133,-1,-1,-1.5110335299935522,-2.0632222852615474,1.2651604199693844,0.498333796071443,0.7865593462961691,1.0395596027374268,0.0
134,1,134,-1,1,0.44761577787450924,-1.553180484120274,1.2651604199693844,0.498333796071443,0.7865593462961691,2.9575843811035156,0.0
135,1,135,1,1,1.4386565397990494,0.5836409282515336,1.2651604199693844,0.498333796071443,0.7865593462961691,1.5595529079437256,1.0
136,1,136,-1,-1,-1.095320503984445,-2.0632222852615474,1.2651604199693844,0.498333796071443,0.7865593462961691,1.2165573835372925,0.0
137,1,137,-1,1,0.5600322917434597,-1.553180484120274,1.2651604199693844,0.498333796071443,0.7865593462961691,1.1325584650039673,0.0
138,1,138,1,-1,-1.5130865711038226,0.07359912711026051,1.2651604199693844,0.498333796071443,0.7865593462961691,4.3254852294921875,0.0
139,1,139,-1,1,0.939398579915004,-1.553180484120274,1.2651604199693844,0.498333796071443,0.7865593462961691,1.6035523414611816,0.0
140,1,140,-1,-1,-2.207761456047731,-2.0632222852615474,1.2651604199693844,0.498333796071443,0.7865593462961691,2.147566795349121,0.0
141,1,141,-1,1,2.1891206618785426,-1.553180484120274,1.2651604199693844,0.498333796071443,0.7865593462961691,1.3395557403564453,0.0
142,1,142,-1,1,2.8590963686174256,-1.553180484120274,1.2651604199693844,0.498333796071443,0.7865593462961691,1.96755850315094,0.0
143,1,143,-1,1,0.8817927543608545,-1.553180484120274,1.2651604199693844,0.498333796071443,0.7865593462961691,0.9825595617294312,0.0
144,1,144,1,-1,-1.9440629083388963,0.07359912711026051,1.2651604199693844,0.498333796071443,0.7865593462961691,1.6485518217086792,0.0
145,1,145,-1,-1,-2.215584612428646,-2.0632222852615474,1.2651604199693844,0.498333796071443,0.7865593462961691,2.2005693912506104,0.0
146,1,146,1,-1,-1.91790660364663,0.07359912711026051,1.2651604199693844,0.498333796071443,0.7865593462961691,3.458548069000244,0.0
147,1,147,-1,1,1.2898683820611427,-1.553180484120274,1.2651604199693844,0.498333796071443,0.7865593462961691,1.148558259010315,0.0
148,1,148,1,1,0.6612832585303156,0.5836409282515336,1.2651604199693844,0.498333796071443,0.7865593462961691,1.189557671546936,1.0
149,1,149,1,-1,-0.5269009198033319,0.07359912711026051,1.2651604199693844,0.498333796071443,0.7865593462961691,2.7105932235717773,0.0
150,1,150,1,1,0.41543322366328406,0.5836409282515336,1.2651604199693844,0.498333796071443,0.7865593462961691,2.6945924758911133,1.0
151,1,151,1,1,0.6078529217779477,0.5836409282515336,1.2651604199693844,0.498333796071443,0.7865593462961691,1.995559811592102,1.0
152,1,152,1,-1,0.1774579489926038,0.07359912711026051,1.2651604199693844,0.498333796071443,0.7865593462961691,1.215557336807251,1.0
153,1,153,-1,1,1.4760436026104764,-1.553180484120274,1.2651604199693844,0.498333796071443,0.7865593462961691,1.3915550708770752,0.0
154,1,154,-1,1,1.6946270384088669,-1.553180484120274,1.2651604199693844,0.498333796071443,0.7865593462961691,1.6485518217086792,0.0
155,1,155,1,-1,-2.179657607472952,0.07359912711026051,1.2651604199693844,0.498333796071443,0.7865593462961691,2.7685959339141846,0.0
156,1,156,-1,-1,-2.280628987999384,-2.0632222852615474,1.2651604199693844,0.498333796071443,0.7865593462961691,1.0995588302612305,0.0
157,1,157,-1,1,1.0176963091205768,-1.553180484120274,1.2651604199693844,0.498333796071443,0.7865593462961691,1.09355890750885,0.0
158,1,158,-1,1,0.8329118790450573,-1.553180484120274,1.2651604199693844,0.498333796071443,0.7865593462961691,1.1745579242706299,0.0
159,1,159,-1,1,-0.15265310924428666,-1.553180484120274,1.2651604199693844,0.498333796071443,0.7865593462961691,0.9995595812797546,0.0
160,1,160,1,1,0.5530238623447568,0.5836409282515336,1.2651604199693844,0.498333796071443,0.7865593462961691,1.3335559368133545,1.0
161,1,161,-1,-1,-2.462835279274333,-2.0632222852615474,1.2651604199693844,0.498333796071443,0.7865593462961691,1.2995562553405762,0.0
162,1,162,1,-1,-0.5989699161954272,0.07359912711026051,1.2651604199693844,0.498333796071443,0.7865593462961691,2.637589931488037,0.0
163,1,163,-1,1,1.26954425781881,-1.553180484120274,1.2651604199693844,0.498333796071443,0.7865593462961691,1.3265559673309326,0.0
164,1,164,-1,1,0.10973389895890628,-1.553180484120274,1.2651604199693844,0.498333796071443,0.7865593462961691,1.3785552978515625,0.0
165,1,165,-1,-1,0.7110229148268981,-2.0632222852615474,1.2651604199693844,0.498333796071443,0.7865593462961691,1.2655566930770874,0.0
166,1,166,1,-1,-0.38186315910660884,0.07359912711026051,1.2651604199693844,0.498333796071443,0.7865593462961691,1.0885590314865112,1.0
167,1,167,1,-1,-1.5169659256296022,0.07359912711026051,1.2651604199693844,0.498333796071443,0.7865593462961691,1.2285572290420532,1.0
168,1,168,1,-1,-1.847818347127223,0.07359912711026051,1.2651604199693844,0.498333796071443,0.7865593462961691,3.506544589996338,1.0
169,1,169,-1,-1,-0.7300041950238026,-2.0632222852615474,1.2651604199693844,0.498333796071443,0.7865593462961691,1.3275558948516846,0.0
170,1,170,1,-1,-2.0713058481980045,0.07359912711026051,1.2651604199693844,0.498333796071443,0.7865593462961691,2.427579879760742,1.0
171,1,171,-1,-1,-1.7862986824687612,-2.0632222852615474,1.2651604199693844,0.498333796071443,0.7865593462961691,1.1565581560134888,0.0
172,1,172,1,1,1.9221678356337928,0.5836409282515336,1.2651604199693844,0.498333796071443,0.7865593462961691,2.309574604034424,1.0
173,1,173,1,-1,0.2879350755296326,0.07359912711026051,1.2651604199693844,0.498333796071443,0.7865593462961691,1.8455528020858765,1.0
174,1,174,1,-1,0.5527102908591763,0.07359912711026051,1.2651604199693844,0.498333796071443,0.7865593462961691,3.1945672035217285,0.0
175,1,175,-1,1,0.5553076210886965,-1.553180484120274,1.2651604199693844,0.498333796071443,0.7865593462961691,1.7165509462356567,0.0
176,1,176,-1,1,2.1902955996149007,-1.553180484120274,1.2651604199693844,0.498333796071443,0.7865593462961691,1.3295559883117676,0.0
177,1,177,1,1,0.8420117843629332,0.5836409282515336,1.2651604199693844,0.498333796071443,0.7865593462961691,1.5305533409118652,1.0
178,1,178,1,1,1.4250478972965228,0.5836409282515336,1.2651604199693844,0.498333796071443,0.7865593462961691,2.124565839767456,1.0
179,1,179,-1,-1,-1.3351607200962996,-2.0632222852615474,1.2651604199693844,0.498333796071443,0.7865593462961691,1.1065587997436523,0.0
180,1,180,1,1,0.04429146774682968,0.5836409282515336,1.2651604199693844,0.498333796071443,0.7865593462961691,3.222565174102783,1.0
181,1,181,1,-1,-0.9343076757409436,0.07359912711026051,1.2651604199693844,0.498333796071443,0.7865593462961691,2.4715819358825684,0.0
182,1,182,1,1,0.022743716593685015,0.5836409282515336,1.2651604199693844,0.498333796071443,0.7865593462961691,4.087502479553223,1.0
183,1,183,1,-1,-1.2358992548850727,0.07359912711026051,1.2651604199693844,0.498333796071443,0.7865593462961691,1.5815527439117432,1.0
184,1,184,1,1,1.3403631612972382,0.5836409282515336,1.2651604199693844,0.498333796071443,0.7865593462961691,4.512471675872803,0.0
185,1,185,1,1,3.0895879530126984,0.5836409282515336,1.2651604199693844,0.498333796071443,0.7865593462961691,2.618588924407959,1.0
186,1,186,-1,-1,-0.2767174321548238,-2.0632222852615474,1.2651604199693844,0.498333796071443,0.7865593462961691,1.5735528469085693,0.0
187,1,187,1,1,-0.1489008654489523,0.5836409282515336,1.2651604199693844,0.498333796071443,0.7865593462961691,3.223565101623535,1.0
188,1,188,-1,1,-0.03602044624673306,-1.553180484120274,1.2651604199693844,0.498333796071443,0.7865593462961691,2.9385857582092285,0.0
189,1,189,-1,-1,-1.811170917402037,-2.0632222852615474,1.2651604199693844,0.498333796071443,0.7865593462961691,1.8035508394241333,0.0
190,1,190,1,-1,-0.05325800136813541,0.07359912711026051,1.2651604199693844,0.498333796071443,0.7865593462961691,1.1135586500167847,0.0
191,1,191,-1,-1,-0.44606096815648777,-2.0632222852615474,1.2651604199693844,0.498333796071443,0.7865593462961691,1.2895565032958984,0.0
192,1,192,-1,1,2.3303194153355467,-1.553180484120274,1.2651604199693844,0.498333796071443,0.7865593462961691,1.3015563488006592,0.0
193,1,193,1,-1,-1.2884853337999986,0.07359912711026051,1.2651604199693844,0.498333796071443,0.7865593462961691,1.5405532121658325,1.0
194,1,194,-1,-1,-2.868170521436681,-2.0632222852615474,1.2651604199693844,0.498333796071443,0.7865593462961691,1.1045588254928589,0.0
195,1,195,-1,1,0.4936048823760102,-1.553180484120274,1.2651604199693844,0.498333796071443,0.7865593462961691,1.0845590829849243,0.0
196,1,196,-1,1,0.33005042503400683,-1.553180484120274,1.2651604199693844,0.498333796071443,0.7865593462961691,1.8915549516677856,0.0
197,1,197,1,1,1.1697913544136225,0.5836409282515336,1.2651604199693844,0.498333796071443,0.7865593462961691,2.802595615386963,1.0
198,1,198,-1,1,0.9559092622272808,-1.553180484120274,1.2651604199693844,0.498333796071443,0.7865593462961691,2.2845733165740967,0.0
199,1,199,-1,-1,-2.1421981521590183,-2.0632222852615474,1.2651604199693844,0.498333796071443,0.7865593462961691,1.5315532684326172,0.0
200,1,200,-1,1,1.4014696252438417,-1.553180484120274,1.2651604199693844,0.498333796071443,0.7865593462961691,2.619588851928711,0.0
201,1,201,1,-1,-0.35156076794158797,0.07359912711026051,1.2651604199693844,0.498333796071443,0.7865593462961691,1.0555593967437744,1.0
202,1,202,-1,-1,-1.4418414441244234,-2.0632222852615474,1.2651604199693844,0.498333796071443,0.7865593462961691,1.328555941581726,0.0
203,1,203,-1,1,1.008984379222817,-1.553180484120274,1.2651604199693844,0.498333796071443,0.7865593462961691,1.9495576620101929,0.0
204,1,204,1,-1,-2.2662989194574426,0.07359912711026051,1.2651604199693844,0.498333796071443,0.7865593462961691,1.2735565900802612,0.0
205,1,205,-1,1,-0.4043191326122135,-1.553180484120274,1.2651604199693844,0.498333796071443,0.7865593462961691,1.0005595684051514,0.0
206,1,206,-1,-1,1.00369109739394,-2.0632222852615474,1.2651604199693844,0.498333796071443,0.7865593462961691,1.288556456565857,0.0
207,1,207,1,-1,-2.5540934053245077,0.07359912711026051,1.2651604199693844,0.498333796071443,0.7865593462961691,3.1775684356689453,1.0
208,1,208,-1,1,2.573851828315558,-1.553180484120274,1.2651604199693844,0.498333796071443,0.7865593462961691,0.9995595812797546,0.0
209,1,209,1,1,0.27293151665758797,0.5836409282515336,1.2651604199693844,0.498333796071443,0.7865593462961691,2.1805684566497803,1.0
210,1,210,-1,-1,-2.784720301839704,-2.0632222852615474,1.2651604199693844,0.498333796071443,0.7865593462961691,1.2765566110610962,0.0
211,1,211,1,-1,-2.982559933923632,0.07359912711026051,1.2651604199693844,0.498333796071443,0.7865593462961691,1.4625542163848877,0.0
212,1,212,1,1,0.5796823735703274,0.5836409282515336,1.2651604199693844,0.498333796071443,0.7865593462961691,3.673532485961914,1.0
213,1,213,-1,1,-0.3266194877870181,-1.553180484120274,1.2651604199693844,0.498333796071443,0.7865593462961691,1.1065587997436523,0.0
214,1,214,1,1,0.44092712568802717,0.5836409282515336,1.2651604199693844,0.498333796071443,0.7865593462961691,1.5245534181594849,1.0
215,1,215,1,1,0.7004026484700481,0.5836409282515336,1.2651604199693844,0.498333796071443,0.7865593462961691,1.491553783416748,1.0
216,1,216,-1,1,1.0415846778309454,-1.553180484120274,1.2651604199693844,0.498333796071443,0.7865593462961691,1.5145535469055176,0.0
217,1,217,1,-1,-0.3860858605382754,0.07359912711026051,1.2651604199693844,0.498333796071443,0.7865593462961691,1.4585542678833008,1.0
218,1,218,1,1,2.7987884286260916,0.5836409282515336,1.2651604199693844,0.498333796071443,0.7865593462961691,2.2445714473724365,1.0
219,1,219,1,-1,-1.2741459118159484,0.07359912711026051,1.2651604199693844,0.498333796071443,0.7865593462961691,2.115565299987793,1.0
220,1,220,1,1,1.942713111516286,0.5836409282515336,1.2651604199693844,0.498333796071443,0.7865593462961691,3.0205798149108887,1.0
221,1,221,-1,-1,-0.7985247968361456,-2.0632222852615474,1.2651604199693844,0.498333796071443,0.7865593462961691,1.0115596055984497,0.0
222,1,222,-1,1,1.8017622633420407,-1.553180484120274,1.2651604199693844,0.498333796071443,0.7865593462961691,2.4715819358825684,0.0
223,1,223,-1,-1,0.49843494900907315,-2.0632222852615474,1.2651604199693844,0.498333796071443,0.7865593462961691,1.6445518732070923,0.0
224,1,224,-1,1,2.2879812312930423,-1.553180484120274,1.2651604199693844,0.498333796071443,0.7865593462961691,2.139566421508789,0.0
225,1,225,1,-1,1.2491004583336047,0.07359912711026051,1.2651604199693844,0.498333796071443,0.7865593462961691,1.3255560398101807,1.0
226,1,226,-1,1,2.869150084791078,-1.553180484120274,1.2651604199693844,0.498333796071443,0.7865593462961691,2.5095839500427246,0.0
227,1,227,1,1,-1.0392496692666624,0.5836409282515336,1.2651604199693844,0.498333796071443,0.7865593462961691,1.3595554828643799,1.0
228,1,228,-1,1,0.3939844786454567,-1.553180484120274,1.2651604199693844,0.498333796071443,0.7865593462961691,1.493553876876831,0.0
229,1,229,-1,1,0.8954090705027933,-1.553180484120274,1.2651604199693844,0.498333796071443,0.7865593462961691,1.635551929473877,0.0
230,1,230,-1,1,0.5474782047015023,-1.553180484120274,1.2651604199693844,0.498333796071443,0.7865593462961691,1.6915512084960938,0.0
231,1,231,1,1,1.9780494058580778,0.5836409282515336,1.2651604199693844,0.498333796071443,0.7865593462961691,3.8505196571350098,0.0
232,1,232,-1,-1,-0.5621443958362929,-2.0632222852615474,1.2651604199693844,0.498333796071443,0.7865593462961691,1.1175585985183716,0.0
233,1,233,1,-1,-1.0017896208206283,0.07359912711026051,1.2651604199693844,0.498333796071443,0.7865593462961691,1.8475528955459595,0.0
234,1,234,1,1,-0.11482050741109684,0.5836409282515336,1.2651604199693844,0.498333796071443,0.7865593462961691,1.3945550918579102,1.0
235,1,235,1,1,-0.9407575634479264,0.5836409282515336,1.2651604199693844,0.498333796071443,0.7865593462961691,2.584587335586548,1.0
236,1,236,-1,1,1.4613481999678604,-1.553180484120274,1.2651604199693844,0.498333796071443,0.7865593462961691,2.104564905166626,0.0
237,1,237,1,1,-0.6878130553151784,0.5836409282515336,1.2651604199693844,0.498333796071443,0.7865593462961691,2.5225844383239746,1.0
238,1,238,-1,1,1.5900917195515016,-1.553180484120274,1.2651604199693844,0.498333796071443,0.7865593462961691,1.5055537223815918,0.0
239,1,239,1,1,1.6744346614156977,0.5836409282515336,1.2651604199693844,0.498333796071443,0.7865593462961691,2.123565673828125,1.0
240,1,240,-1,-1,-3.1015869261625255,-2.0632222852615474,1.2651604199693844,0.498333796071443,0.7865593462961691,1.708551049232483,0.0
241,1,241,-1,1,1.2240254174674907,-1.553180484120274,1.2651604199693844,0.498333796071443,0.7865593462961691,1.1295584440231323,0.0
242,1,242,1,1,0.810435538305932,0.5836409282515336,1.2651604199693844,0.498333796071443,0.7865593462961691,4.383481025695801,1.0
243,1,243,-1,-1,-1.7172021582053567,-2.0632222852615474,1.2651604199693844,0.498333796071443,0.7865593462961691,1.5315532684326172,0.0
244,1,244,1,1,3.1499725282418423,0.5836409282515336,1.2651604199693844,0.498333796071443,0.7865593462961691,2.0345616340637207,1.0
245,1,245,-1,1,1.548849878926541,-1.553180484120274,1.2651604199693844,0.498333796071443,0.7865593462961691,3.0195798873901367,0.0
246,1,246,1,1,0.4302899106278997,0.5836409282515336,1.2651604199693844,0.498333796071443,0.7865593462961691,3.4315500259399414,1.0
247,1,247,-1,-1,0.5790096798715814,-2.0632222852615474,1.2651604199693844,0.498333796071443,0.7865593462961691,1.7685502767562866,0.0
248,1,248,1,1,-0.03353758348349056,0.5836409282515336,1.2651604199693844,0.498333796071443,0.7865593462961691,1.3145561218261719,1.0
249,1,249,1,1,2.3464651545549238,0.5836409282515336,1.2651604199693844,0.498333796071443,0.7865593462961691,2.634589672088623,1.0
250,1,250,-1,1,1.1203584439554763,-1.553180484120274,1.2651604199693844,0.498333796071443,0.7865593462961691,1.5185534954071045,0.0
251,1,251,-1,1,1.8269484553844095,-1.553180484120274,1.2651604199693844,0.498333796071443,0.7865593462961691,1.85455322265625,0.0
252,1,252,1,-1,-2.097715416090822,0.07359912711026051,1.2651604199693844,0.498333796071443,0.7865593462961691,2.624589204788208,0.0
253,1,253,1,-1,-0.26858797604142626,0.07359912711026051,1.2651604199693844,0.498333796071443,0.7865593462961691,6.600320816040039,0.0
254,1,254,1,-1,-1.616085506998298,0.07359912711026051,1.2651604199693844,0.498333796071443,0.7865593462961691,1.5145535469055176,1.0
255,1,255,-1,1,1.7469676596799055,-1.553180484120274,1.2651604199693844,0.498333796071443,0.7865593462961691,1.3695554733276367,0.0
256,1,256,1,1,1.4512353143897252,0.5836409282515336,1.2651604199693844,0.498333796071443,0.7865593462961691,1.4615542888641357,1.0
257,1,257,1,-1,-1.0644637382387048,0.07359912711026051,1.2651604199693844,0.498333796071443,0.7865593462961691,1.3005563020706177,0.0
258,1,258,1,-1,-1.550590755145587,0.07359912711026051,1.2651604199693844,0.498333796071443,0.7865593462961691,2.7715959548950195,0.0
259,1,259,1,-1,-1.0352929264839574,0.07359912711026051,1.2651604199693844,0.498333796071443,0.7865593462961691,4.3474836349487305,1.0
260,1,260,1,-1,0.12068368325806733,0.07359912711026051,1.2651604199693844,0.498333796071443,0.7865593462961691,1.539553165435791,1.0
261,1,261,1,1,0.30176753739043083,0.5836409282515336,1.2651604199693844,0.498333796071443,0.7865593462961691,1.0895589590072632,1.0
262,1,262,1,1,1.941255228354267,0.5836409282515336,1.2651604199693844,0.498333796071443,0.7865593462961691,1.1545581817626953,0.0
263,1,263,1,1,-0.6752142169684165,0.5836409282515336,1.2651604199693844,0.498333796071443,0.7865593462961691,1.1735578775405884,1.0
264,1,264,-1,-1,-1.757736716623391,-2.0632222852615474,1.2651604199693844,0.498333796071443,0.7865593462961691,1.3375558853149414,0.0
265,1,265,-1,-1,-0.9669426864295358,-2.0632222852615474,1.2651604199693844,0.498333796071443,0.7865593462961691,0.9695595502853394,0.0
266,1,266,-1,1,0.6056571740510951,-1.553180484120274,1.2651604199693844,0.498333796071443,0.7865593462961691,3.1135730743408203,0.0
267,1,267,1,1,1.6876298875860478,0.5836409282515336,1.2651604199693844,0.498333796071443,0.7865593462961691,2.580587148666382,1.0
268,1,268,-1,1,1.258816655685854,-1.553180484120274,1.2651604199693844,0.498333796071443,0.7865593462961691,1.3405557870864868,0.0
269,1,269,1,-1,-0.9637047447169033,0.07359912711026051,1.2651604199693844,0.498333796071443,0.7865593462961691,2.067563056945801,1.0
270,1,270,1,-1,-3.2152524306823365,0.07359912711026051,1.2651604199693844,0.498333796071443,0.7865593462961691,2.610588550567627,0.0
271,1,271,1,1,1.0934499539645746,0.5836409282515336,1.2651604199693844,0.498333796071443,0.7865593462961691,1.4865539073944092,1.0
272,1,272,1,1,2.219689449247439,0.5836409282515336,1.2651604199693844,0.498333796071443,0.7865593462961691,2.573586940765381,1.0
273,1,273,-1,-1,-1.2945511241779897,-2.0632222852615474,1.2651604199693844,0.498333796071443,0.7865593462961691,1.052559494972229,0.0
274,1,274,1,-1,-1.0510263914460192,0.07359912711026051,1.2651604199693844,0.498333796071443,0.7865593462961691,1.6585516929626465,0.0
275,1,275,1,-1,-1.112461629564618,0.07359912711026051,1.2651604199693844,0.498333796071443,0.7865593462961691,1.5305533409118652,0.0
276,1,276,-1,-1,-1.4558274148511312,-2.0632222852615474,1.2651604199693844,0.498333796071443,0.7865593462961691,1.9845592975616455,0.0
277,1,277,-1,-1,0.13687071131644002,-2.0632222852615474,1.2651604199693844,0.498333796071443,0.7865593462961691,1.2985563278198242,0.0
278,1,278,1,1,1.7771092551512055,0.5836409282515336,1.2651604199693844,0.498333796071443,0.7865593462961691,1.241557002067566,1.0
279,1,279,1,1,1.6069384700128655,0.5836409282515336,1.2651604199693844,0.498333796071443,0.7865593462961691,1.3815553188323975,1.0
280,1,280,1,1,0.796353046225903,0.5836409282515336,1.2651604199693844,0.498333796071443,0.7865593462961691,1.9335569143295288,1.0
281,1,281,1,1,1.1764885605144524,0.5836409282515336,1.2651604199693844,0.498333796071443,0.7865593462961691,1.6295521259307861,1.0
282,1,282,1,-1,0.09601250197196376,0.07359912711026051,1.2651604199693844,0.498333796071443,0.7865593462961691,1.538553237915039,1.0
283,1,283,1,1,0.8013217287113421,0.5836409282515336,1.2651604199693844,0.498333796071443,0.7865593462961691,1.2315571308135986,1.0
284,1,284,1,-1,0.0529963974004406,0.07359912711026051,1.2651604199693844,0.498333796071443,0.7865593462961691,1.031559705734253,1.0
285,1,285,-1,1,0.9522699832612238,-1.553180484120274,1.2651604199693844,0.498333796071443,0.7865593462961691,1.052559494972229,0.0
286,1,286,-1,1,2.167132960226992,-1.553180484120274,1.2651604199693844,0.498333796071443,0.7865593462961691,1.5235533714294434,0.0
287,1,287,-1,1,2.524599048675194,-1.553180484120274,1.2651604199693844,0.498333796071443,0.7865593462961691,1.0145596265792847,0.0
288,1,288,-1,-1,-1.6188183964473124,-2.0632222852615474,1.2651604199693844,0.498333796071443,0.7865593462961691,1.1055587530136108,0.0
289,1,289,1,-1,-0.16946073802940587,0.07359912711026051,1.2651604199693844,0.498333796071443,0.7865593462961691,1.543553113937378,0.0
290,1,290,1,1,1.1572998959924128,0.5836409282515336,1.2651604199693844,0.498333796071443,0.7865593462961691,1.306556224822998,0.0
291,1,291,1,1,1.4984439347203102,0.5836409282515336,1.2651604199693844,0.498333796071443,0.7865593462961691,1.2355570793151855,1.0
292,1,292,1,-1,-2.0467841274548357,0.07359912711026051,1.2651604199693844,0.498333796071443,0.7865593462961691,1.218557357788086,1.0
293,1,293,-1,1,1.1514814140979825,-1.553180484120274,1.2651604199693844,0.498333796071443,0.7865593462961691,2.8275938034057617,0.0
294,1,294,-1,1,0.24133865073650485,-1.553180484120274,1.2651604199693844,0.498333796071443,0.7865593462961691,1.542553186416626,0.0
295,1,295,1,-1,-2.3335085515432965,0.07359912711026051,1.2651604199693844,0.498333796071443,0.7865593462961691,1.3015563488006592,1.0
296,1,296,1,1,0.42658408284343086,0.5836409282515336,1.2651604199693844,0.498333796071443,0.7865593462961691,2.2535719871520996,1.0
297,1,297,1,1,1.3498233453530242,0.5836409282515336,1.2651604199693844,0.498333796071443,0.7865593462961691,1.3965550661087036,1.0
298,1,298,-1,-1,-1.2451146466287921,-2.0632222852615474,1.2651604199693844,0.498333796071443,0.7865593462961691,2.8705906867980957,0.0
299,1,299,-1,1,2.654795598571649,-1.553180484120274,1.2651604199693844,0.498333796071443,0.7865593462961691,4.5164713859558105,0.0
300,1,300,-1,1,3.0050445771946763,-1.553180484120274,1.2651604199693844,0.498333796071443,0.7865593462961691,2.163567543029785,0.0
301,1,301,-1,-1,-0.0813312804823294,-2.0632222852615474,1.2651604199693844,0.498333796071443,0.7865593462961691,1.4125548601150513,0.0
302,1,302,-1,-1,-1.8327590271953724,-2.0632222852615474,1.2651604199693844,0.498333796071443,0.7865593462961691,1.3185560703277588,0.0
303,1,303,-1,1,0.5739185306758133,-1.553180484120274,1.2651604199693844,0.498333796071443,0.7865593462961691,1.1355583667755127,0.0
304,1,304,1,-1,-0.5273881409190109,0.07359912711026051,1.2651604199693844,0.498333796071443,0.7865593462961691,1.589552640914917,1.0
305,1,305,-1,1,-0.5118940945416832,-1.553180484120274,1.2651604199693844,0.498333796071443,0.7865593462961691,1.0355596542358398,0.0
306,1,306,1,1,1.8902783546769553,0.5836409282515336,1.2651604199693844,0.498333796071443,0.7865593462961691,1.635551929473877,1.0
307,1,307,1,1,1.1945218528082249,0.5836409282515336,1.2651604199693844,0.498333796071443,0.7865593462961691,2.0365617275238037,1.0
308,1,308,1,1,-0.6226696162939664,0.5836409282515336,1.2651604199693844,0.498333796071443,0.7865593462961691,1.4105548858642578,1.0
309,1,309,1,1,3.0937270525523437,0.5836409282515336,1.2651604199693844,0.498333796071443,0.7865593462961691,1.7455506324768066,0.0
310,1,310,1,1,0.5983081097732523,0.5836409282515336,1.2651604199693844,0.498333796071443,0.7865593462961691,1.9075556993484497,1.0
311,1,311,1,-1,-0.6298992033683312,0.07359912711026051,1.2651604199693844,0.498333796071443,0.7865593462961691,1.126558542251587,1.0
312,1,312,-1,-1,-3.213228711145731,-2.0632222852615474,1.2651604199693844,0.498333796071443,0.7865593462961691,1.0445595979690552,0.0
313,1,313,-1,-1,-1.048483618065035,-2.0632222852615474,1.2651604199693844,0.498333796071443,0.7865593462961691,1.0775591135025024,0.0
314,1,314,1,-1,-3.0385860127193927,0.07359912711026051,1.2651604199693844,0.498333796071443,0.7865593462961691,4.182495594024658,1.0
315,1,315,1,-1,-1.5563276141319893,0.07359912711026051,1.2651604199693844,0.498333796071443,0.7865593462961691,1.0775591135025024,0.0
316,1,316,-1,1,1.633693055541659,-1.553180484120274,1.2651604199693844,0.498333796071443,0.7865593462961691,1.2975564002990723,0.0
317,1,317,-1,-1,-1.2587613526800907,-2.0632222852615474,1.2651604199693844,0.498333796071443,0.7865593462961691,1.119558572769165,0.0
318,1,318,1,-1,-1.216389119608581,0.07359912711026051,1.2651604199693844,0.498333796071443,0.7865593462961691,3.6395349502563477,1.0
319,1,319,-1,1,-0.12127376441594873,-1.553180484120274,1.2651604199693844,0.498333796071443,0.7865593462961691,2.3045742511749268,1.0
320,1,320,1,1,0.5320152730228138,0.5836409282515336,1.2651604199693844,0.498333796071443,0.7865593462961691,1.3395557403564453,0.0
321,1,321,1,1,0.4529526534296251,0.5836409282515336,1.2651604199693844,0.498333796071443,0.7865593462961691,2.5465855598449707,1.0
322,1,322,1,-1,-1.5463487470454116,0.07359912711026051,1.2651604199693844,0.498333796071443,0.7865593462961691,2.3035740852355957,0.0
323,1,323,1,1,1.6619113977158106,0.5836409282515336,1.2651604199693844,0.498333796071443,0.7865593462961691,1.3015563488006592,1.0
324,1,324,1,1,0.7600036850897505,0.5836409282515336,1.2651604199693844,0.498333796071443,0.7865593462961691,3.1045737266540527,1.0
325,1,325,1,-1,-1.448387260785549,0.07359912711026051,1.2651604199693844,0.498333796071443,0.7865593462961691,3.0265793800354004,0.0
326,1,326,-1,-1,-1.8370159925424714,-2.0632222852615474,1.2651604199693844,0.498333796071443,0.7865593462961691,3.222565174102783,0.0
327,1,327,1,-1,-1.5880852159819323,0.07359912711026051,1.2651604199693844,0.498333796071443,0.7865593462961691,1.5235533714294434,1.0
328,1,328,-1,-1,-0.5229871478492721,-2.0632222852615474,1.2651604199693844,0.498333796071443,0.7865593462961691,1.7965505123138428,0.0
329,1,329,1,-1,-1.6827027425494898,0.07359912711026051,1.2651604199693844,0.498333796071443,0.7865593462961691,1.233557105064392,1.0
330,1,330,1,-1,-0.49149422609733207,0.07359912711026051,1.2651604199693844,0.498333796071443,0.7865593462961691,1.1595580577850342,0.0
331,1,331,-1,-1,-1.9772906124666372,-2.0632222852615474,1.2651604199693844,0.498333796071443,0.7865593462961691,1.7185509204864502,0.0
332,1,332,1,-1,-1.0432765805818789,0.07359912711026051,1.2651604199693844,0.498333796071443,0.7865593462961691,3.994509220123291,1.0
333,1,333,1,1,2.470630179476879,0.5836409282515336,1.2651604199693844,0.498333796071443,0.7865593462961691,0.9875595569610596,1.0
334,1,334,-1,1,0.6235250669369811,-1.553180484120274,1.2651604199693844,0.498333796071443,0.7865593462961691,1.568552851676941,0.0
335,1,335,-1,-1,-1.9790700528192806,-2.0632222852615474,1.2651604199693844,0.498333796071443,0.7865593462961691,1.2565568685531616,0.0
336,1,336,1,-1,-0.7819353632736634,0.07359912711026051,1.2651604199693844,0.498333796071443,0.7865593462961691,1.679551362991333,0.0
337,1,337,1,-1,-0.14166943717854574,0.07359912711026051,1.2651604199693844,0.498333796071443,0.7865593462961691,2.106564998626709,1.0
338,1,338,1,1,1.1471603807332382,0.5836409282515336,1.2651604199693844,0.498333796071443,0.7865593462961691,5.680387496948242,1.0
339,1,339,1,-1,-2.1320786103719938,0.07359912711026051,1.2651604199693844,0.498333796071443,0.7865593462961691,1.587552547454834,1.0
340,1,340,1,1,3.5065716961477396,0.5836409282515336,1.2651604199693844,0.498333796071443,0.7865593462961691,1.1985576152801514,0.0
341,1,341,1,1,-0.903842074288236,0.5836409282515336,1.2651604199693844,0.498333796071443,0.7865593462961691,1.0435595512390137,0.0
342,1,342,-1,1,-0.979533682547264,-1.553180484120274,1.2651604199693844,0.498333796071443,0.7865593462961691,1.1115586757659912,0.0
343,1,343,-1,-1,-1.6130007782846314,-2.0632222852615474,1.2651604199693844,0.498333796071443,0.7865593462961691,1.2025575637817383,0.0
344,1,344,1,-1,-0.5410582899649061,0.07359912711026051,1.2651604199693844,0.498333796071443,0.7865593462961691,1.2755565643310547,1.0
345,1,345,-1,-1,-1.1030024901056272,-2.0632222852615474,1.2651604199693844,0.498333796071443,0.7865593462961691,1.476554036140442,0.0
346,1,346,-1,-1,0.08561504365784378,-2.0632222852615474,1.2651604199693844,0.498333796071443,0.7865593462961691,1.8935550451278687,0.0
347,1,347,1,-1,0.6757429525168828,0.07359912711026051,1.2651604199693844,0.498333796071443,0.7865593462961691,1.0915589332580566,1.0
348,1,348,-1,-1,0.6692150337628546,-2.0632222852615474,1.2651604199693844,0.498333796071443,0.7865593462961691,1.3435556888580322,0.0
349,1,349,1,1,-0.27541289472290553,0.5836409282515336,1.2651604199693844,0.498333796071443,0.7865593462961691,2.9205870628356934,1.0
350,1,350,-1,-1,-1.8573447987025902,-2.0632222852615474,1.2651604199693844,0.498333796071443,0.7865593462961691,2.4335803985595703,0.0
351,1,351,1,-1,0.12457828139090799,0.07359912711026051,1.2651604199693844,0.498333796071443,0.7865593462961691,1.6025524139404297,1.0
352,1,352,-1,1,0.2006137551282008,-1.553180484120274,1.2651604199693844,0.498333796071443,0.7865593462961691,2.320574998855591,0.0
353,1,353,-1,-1,-1.0190537470490282,-2.0632222852615474,1.2651604199693844,0.498333796071443,0.7865593462961691,1.2495568990707397,0.0
354,1,354,1,1,0.8787486395397996,0.5836409282515336,1.2651604199693844,0.498333796071443,0.7865593462961691,3.634535312652588,0.0
355,1,355,-1,1,0.8884957277834609,-1.553180484120274,1.2651604199693844,0.498333796071443,0.7865593462961691,1.5315532684326172,0.0
356,1,356,-1,1,-0.2181746098409627,-1.553180484120274,1.2651604199693844,0.498333796071443,0.7865593462961691,1.2035574913024902,0.0
357,1,357,1,-1,-2.168714128500711,0.07359912711026051,1.2651604199693844,0.498333796071443,0.7865593462961691,1.1255584955215454,0.0
358,1,358,-1,-1,-0.6986797814511005,-2.0632222852615474,1.2651604199693844,0.498333796071443,0.7865593462961691,0.9745595455169678,0.0
359,1,359,1,1,1.6531684257371264,0.5836409282515336,1.2651604199693844,0.498333796071443,0.7865593462961691,2.663590908050537,1.0
360,1,360,1,1,0.31375232205580383,0.5836409282515336,1.2651604199693844,0.498333796071443,0.7865593462961691,2.2735729217529297,1.0
361,1,361,-1,1,1.0243038283624322,-1.553180484120274,1.2651604199693844,0.498333796071443,0.7865593462961691,2.082563877105713,0.0
362,1,362,-1,-1,-0.6785256464922164,-2.0632222852615474,1.2651604199693844,0.498333796071443,0.7865593462961691,1.7695503234863281,0.0
363,1,363,1,1,-0.16606227281126973,0.5836409282515336,1.2651604199693844,0.498333796071443,0.7865593462961691,1.2605568170547485,0.0
364,1,364,1,-1,-0.8421743394132645,0.07359912711026051,1.2651604199693844,0.498333796071443,0.7865593462961691,1.0325596332550049,0.0
365,1,365,-1,1,0.01958980927355536,-1.553180484120274,1.2651604199693844,0.498333796071443,0.7865593462961691,2.2705726623535156,0.0
366,1,366,-1,-1,-2.538449144041561,-2.0632222852615474,1.2651604199693844,0.498333796071443,0.7865593462961691,1.4125548601150513,0.0
367,1,367,1,-1,-2.343190962168892,0.07359912711026051,1.2651604199693844,0.498333796071443,0.7865593462961691,1.836552381515503,1.0
368,1,368,1,-1,-1.7554206048989072,0.07359912711026051,1.2651604199693844,0.498333796071443,0.7865593462961691,2.4875826835632324,0.0
369,1,369,-1,-1,-1.3537950941724275,-2.0632222852615474,1.2651604199693844,0.498333796071443,0.7865593462961691,1.285556435585022,0.0
370,1,370,1,1,0.2418141478717657,0.5836409282515336,1.2651604199693844,0.498333796071443,0.7865593462961691,1.12255859375,1.0
371,1,371,-1,-1,0.4729084490352087,-2.0632222852615474,1.2651604199693844,0.498333796071443,0.7865593462961691,2.121565818786621,0.0
372,1,372,-1,-1,-1.305166374954064,-2.0632222852615474,1.2651604199693844,0.498333796071443,0.7865593462961691,1.0105595588684082,0.0
373,1,373,1,1,1.8289669772588129,0.5836409282515336,1.2651604199693844,0.498333796071443,0.7865593462961691,3.3005595207214355,1.0
374,1,374,-1,-1,-0.8711961922123793,-2.0632222852615474,1.2651604199693844,0.498333796071443,0.7865593462961691,1.075559139251709,0.0
375,1,375,1,-1,-1.5461038779323018,0.07359912711026051,1.2651604199693844,0.498333796071443,0.7865593462961691,2.377577781677246,1.0
376,1,376,1,1,1.0743775107063902,0.5836409282515336,1.2651604199693844,0.498333796071443,0.7865593462961691,1.6025524139404297,1.0
377,1,377,1,-1,-1.1254752040546094,0.07359912711026051,1.2651604199693844,0.498333796071443,0.7865593462961691,2.361577033996582,1.0
378,1,378,-1,1,2.0808048280606175,-1.553180484120274,1.2651604199693844,0.498333796071443,0.7865593462961691,1.6015524864196777,0.0
379,1,379,1,-1,-0.10695837527762986,0.07359912711026051,1.2651604199693844,0.498333796071443,0.7865593462961691,3.8175220489501953,0.0
380,1,380,-1,1,2.3222182225918533,-1.553180484120274,1.2651604199693844,0.498333796071443,0.7865593462961691,1.3815553188323975,0.0
381,1,381,-1,1,2.4765916028275314,-1.553180484120274,1.2651604199693844,0.498333796071443,0.7865593462961691,1.2925564050674438,0.0
382,1,382,1,1,0.24477028485151875,0.5836409282515336,1.2651604199693844,0.498333796071443,0.7865593462961691,1.1755578517913818,1.0
383,1,383,-1,-1,-0.7997434281326207,-2.0632222852615474,1.2651604199693844,0.498333796071443,0.7865593462961691,1.0435595512390137,0.0
384,1,384,1,-1,-0.18074177147135673,0.07359912711026051,1.2651604199693844,0.498333796071443,0.7865593462961691,1.0775591135025024,0.0
385,1,385,-1,1,-0.1546019248425332,-1.553180484120274,1.2651604199693844,0.498333796071443,0.7865593462961691,2.2295708656311035,0.0
386,1,386,-1,-1,-2.300638842840999,-2.0632222852615474,1.2651604199693844,0.498333796071443,0.7865593462961691,1.3455557823181152,0.0
387,1,387,1,1,1.6138152288193321,0.5836409282515336,1.2651604199693844,0.498333796071443,0.7865593462961691,2.0065603256225586,1.0
388,1,388,-1,1,0.7280581687913439,-1.553180484120274,1.2651604199693844,0.498333796071443,0.7865593462961691,1.1255584955215454,0.0
389,1,389,-1,-1,-2.129716988297295,-2.0632222852615474,1.2651604199693844,0.498333796071443,0.7865593462961691,1.236557126045227,0.0
390,1,390,-1,-1,-1.6978897574020595,-2.0632222852615474,1.2651604199693844,0.498333796071443,0.7865593462961691,0.9265594482421875,0.0
391,1,391,1,1,1.6113166910256216,0.5836409282515336,1.2651604199693844,0.498333796071443,0.7865593462961691,4.054504871368408,0.0
392,1,392,1,1,2.86731609799892,0.5836409282515336,1.2651604199693844,0.498333796071443,0.7865593462961691,1.2275571823120117,1.0
393,1,393,-1,-1,-0.21205600818277415,-2.0632222852615474,1.2651604199693844,0.498333796071443,0.7865593462961691,1.3425557613372803,0.0
394,1,394,1,1,0.8097022318560246,0.5836409282515336,1.2651604199693844,0.498333796071443,0.7865593462961691,1.8295520544052124,1.0
395,1,395,1,-1,-1.5734284705278576,0.07359912711026051,1.2651604199693844,0.498333796071443,0.7865593462961691,1.305556297302246,1.0
396,1,396,-1,-1,-0.9983823263027753,-2.0632222852615474,1.2651604199693844,0.498333796071443,0.7865593462961691,1.0275596380233765,0.0
397,1,397,1,1,0.09496573018148713,0.5836409282515336,1.2651604199693844,0.498333796071443,0.7865593462961691,1.5755527019500732,1.0
398,1,398,-1,1,1.5016902008971074,-1.553180484120274,1.2651604199693844,0.498333796071443,0.7865593462961691,1.5295534133911133,0.0
399,1,399,1,-1,-0.5579294281360634,0.07359912711026051,1.2651604199693844,0.498333796071443,0.7865593462961691,3.738527774810791,1.0
400,1,400,1,-1,-0.2982652268831646,0.07359912711026051,1.2651604199693844,0.498333796071443,0.7865593462961691,7.0822858810424805,1.0
401,1,401,-1,1,1.08537015715793,-1.553180484120274,1.2651604199693844,0.498333796071443,0.7865593462961691,0.9605594873428345,0.0
402,1,402,-1,1,-0.6710424994763047,-1.553180484120274,1.2651604199693844,0.498333796071443,0.7865593462961691,1.4095549583435059,0.0
403,1,403,1,1,-1.1318046403328363,0.5836409282515336,1.2651604199693844,0.498333796071443,0.7865593462961691,1.8475528955459595,1.0
404,1,404,1,1,0.7992636779452893,0.5836409282515336,1.2651604199693844,0.498333796071443,0.7865593462961691,2.1785683631896973,1.0
405,1,405,1,-1,-1.1333991190660797,0.07359912711026051,1.2651604199693844,0.498333796071443,0.7865593462961691,2.2235703468322754,1.0
406,1,406,1,1,1.465146813045614,0.5836409282515336,1.2651604199693844,0.498333796071443,0.7865593462961691,2.2565720081329346,1.0
407,1,407,-1,1,2.427166196938132,-1.553180484120274,1.2651604199693844,0.498333796071443,0.7865593462961691,1.1745579242706299,0.0
408,1,408,-1,-1,-1.4581828846180263,-2.0632222852615474,1.2651604199693844,0.498333796071443,0.7865593462961691,1.2175573110580444,0.0
409,1,409,1,1,2.153079348757216,0.5836409282515336,1.2651604199693844,0.498333796071443,0.7865593462961691,3.11857271194458,1.0
410,1,410,-1,1,-0.23378704979807607,-1.553180484120274,1.2651604199693844,0.498333796071443,0.7865593462961691,1.4415545463562012,0.0
411,1,411,-1,-1,-1.2319318421945649,-2.0632222852615474,1.2651604199693844,0.498333796071443,0.7865593462961691,2.4415807723999023,0.0
412,1,412,-1,-1,-0.9470594181345205,-2.0632222852615474,1.2651604199693844,0.498333796071443,0.7865593462961691,1.9005553722381592,0.0
413,1,413,-1,-1,-0.6586286852214088,-2.0632222852615474,1.2651604199693844,0.498333796071443,0.7865593462961691,1.1655579805374146,0.0
414,1,414,1,1,1.4867089721098385,0.5836409282515336,1.2651604199693844,0.498333796071443,0.7865593462961691,3.481546401977539,1.0
415,1,415,1,-1,-1.224333778412312,0.07359912711026051,1.2651604199693844,0.498333796071443,0.7865593462961691,4.028506755828857,1.0
416,1,416,1,1,-0.9086544477053302,0.5836409282515336,1.2651604199693844,0.498333796071443,0.7865593462961691,1.171557903289795,1.0
417,1,417,-1,-1,-1.3527082932073993,-2.0632222852615474,1.2651604199693844,0.498333796071443,0.7865593462961691,1.1135586500167847,0.0
418,1,418,-1,-1,-0.5802491331949293,-2.0632222852615474,1.2651604199693844,0.498333796071443,0.7865593462961691,1.2565568685531616,0.0
419,1,419,1,-1,-1.9729089144858878,0.07359912711026051,1.2651604199693844,0.498333796071443,0.7865593462961691,6.951294898986816,1.0
420,1,420,1,1,0.6888443572470994,0.5836409282515336,1.2651604199693844,0.498333796071443,0.7865593462961691,4.172496318817139,1.0
421,1,421,1,1,2.27794488255166,0.5836409282515336,1.2651604199693844,0.498333796071443,0.7865593462961691,3.3495559692382812,1.0
422,1,422,1,1,2.137777549533106,0.5836409282515336,1.2651604199693844,0.498333796071443,0.7865593462961691,1.215557336807251,1.0
423,1,423,1,1,3.155138502810719,0.5836409282515336,1.2651604199693844,0.498333796071443,0.7865593462961691,4.156497478485107,1.0
424,1,424,-1,-1,0.028213115208635564,-2.0632222852615474,1.2651604199693844,0.498333796071443,0.7865593462961691,1.2555568218231201,0.0
425,1,425,-1,-1,-0.5224530693652285,-2.0632222852615474,1.2651604199693844,0.498333796071443,0.7865593462961691,1.535553216934204,0.0
426,1,426,1,1,-0.09824326004025541,0.5836409282515336,1.2651604199693844,0.498333796071443,0.7865593462961691,2.342576026916504,1.0
427,1,427,1,-1,0.6868524803724116,0.07359912711026051,1.2651604199693844,0.498333796071443,0.7865593462961691,1.9205563068389893,0.0
428,1,428,-1,1,2.875723327055228,-1.553180484120274,1.2651604199693844,0.498333796071443,0.7865593462961691,1.2135573625564575,0.0
429,1,429,1,1,1.641851678233122,0.5836409282515336,1.2651604199693844,0.498333796071443,0.7865593462961691,1.725550889968872,1.0
430,1,430,1,-1,-0.44034473065184176,0.07359912711026051,1.2651604199693844,0.498333796071443,0.7865593462961691,2.2205703258514404,1.0
431,1,431,-1,-1,-1.782213242667233,-2.0632222852615474,1.2651604199693844,0.498333796071443,0.7865593462961691,1.5785527229309082,0.0
432,1,432,-1,1,0.6334092322717246,-1.553180484120274,1.2651604199693844,0.498333796071443,0.7865593462961691,1.3475556373596191,0.0
433,1,433,1,-1,-1.3132145899253818,0.07359912711026051,1.2651604199693844,0.498333796071443,0.7865593462961691,3.1535701751708984,1.0
434,1,434,1,1,3.398915096445013,0.5836409282515336,1.2651604199693844,0.498333796071443,0.7865593462961691,1.8635536432266235,1.0
435,1,435,1,1,1.2180969883079327,0.5836409282515336,1.2651604199693844,0.498333796071443,0.7865593462961691,1.4005550146102905,1.0
436,1,436,1,1,0.7239538662599474,0.5836409282515336,1.2651604199693844,0.498333796071443,0.7865593462961691,1.0605593919754028,0.0
437,1,437,1,-1,0.1743036034601575,0.07359912711026051,1.2651604199693844,0.498333796071443,0.7865593462961691,3.201566696166992,0.0
438,1,438,-1,-1,-1.6623096648552753,-2.0632222852615474,1.2651604199693844,0.498333796071443,0.7865593462961691,1.535553216934204,0.0
439,1,439,1,-1,0.34476606341642824,0.07359912711026051,1.2651604199693844,0.498333796071443,0.7865593462961691,1.0735591650009155,1.0
440,1,440,-1,-1,-2.054505490659615,-2.0632222852615474,1.2651604199693844,0.498333796071443,0.7865593462961691,1.3485556840896606,0.0
441,1,441,1,-1,-1.272524859443578,0.07359912711026051,1.2651604199693844,0.498333796071443,0.7865593462961691,0.9965596199035645,0.0
442,1,442,-1,1,1.7915830763152418,-1.553180484120274,1.2651604199693844,0.498333796071443,0.7865593462961691,1.9765589237213135,0.0
443,1,443,1,-1,-1.9418084765295303,0.07359912711026051,1.2651604199693844,0.498333796071443,0.7865593462961691,1.5115535259246826,1.0
444,1,444,-1,1,1.6093717868181447,-1.553180484120274,1.2651604199693844,0.498333796071443,0.7865593462961691,1.0805591344833374,0.0
445,1,445,1,-1,-0.44140395219743467,0.07359912711026051,1.2651604199693844,0.498333796071443,0.7865593462961691,1.4265546798706055,0.0
446,1,446,1,1,2.295201721691801,0.5836409282515336,1.2651604199693844,0.498333796071443,0.7865593462961691,3.4075517654418945,1.0
447,1,447,-1,1,0.8622749993820022,-1.553180484120274,1.2651604199693844,0.498333796071443,0.7865593462961691,1.5635528564453125,0.0
448,1,448,1,1,-0.2302267128205706,0.5836409282515336,1.2651604199693844,0.498333796071443,0.7865593462961691,1.9985599517822266,1.0
449,1,449,-1,-1,-3.174791137335352,-2.0632222852615474,1.2651604199693844,0.498333796071443,0.7865593462961691,1.1435582637786865,0.0
450,1,450,1,-1,-0.7753349238913173,0.07359912711026051,1.2651604199693844,0.498333796071443,0.7865593462961691,1.3495557308197021,1.0
451,1,451,1,1,1.8599950847946172,0.5836409282515336,1.2651604199693844,0.498333796071443,0.7865593462961691,2.5605862140655518,1.0
452,1,452,-1,-1,-1.008919189570991,-2.0632222852615474,1.2651604199693844,0.498333796071443,0.7865593462961691,1.30755615234375,0.0
453,1,453,1,-1,-1.8299226514546967,0.07359912711026051,1.2651604199693844,0.498333796071443,0.7865593462961691,0.924559473991394,1.0
454,1,454,-1,-1,-0.07135620403261633,-2.0632222852615474,1.2651604199693844,0.498333796071443,0.7865593462961691,1.6615517139434814,0.0
455,1,455,-1,-1,1.662376885413961,-2.0632222852615474,1.2651604199693844,0.498333796071443,0.7865593462961691,1.3735554218292236,0.0
456,1,456,1,-1,-1.246149479640511,0.07359912711026051,1.2651604199693844,0.498333796071443,0.7865593462961691,1.4365545511245728,1.0
457,1,457,1,-1,-1.6934207337348481,0.07359912711026051,1.2651604199693844,0.498333796071443,0.7865593462961691,3.6445345878601074,1.0
458,1,458,1,-1,-1.6220157557840191,0.07359912711026051,1.2651604199693844,0.498333796071443,0.7865593462961691,5.737382888793945,0.0
459,1,459,1,1,1.2805910222790415,0.5836409282515336,1.2651604199693844,0.498333796071443,0.7865593462961691,2.649590492248535,1.0
460,1,460,-1,1,1.5864038073481557,-1.553180484120274,1.2651604199693844,0.498333796071443,0.7865593462961691,1.537553310394287,0.0
461,1,461,1,1,2.575428370559314,0.5836409282515336,1.2651604199693844,0.498333796071443,0.7865593462961691,2.0475621223449707,1.0
462,1,462,-1,-1,-1.1562323189990813,-2.0632222852615474,1.2651604199693844,0.498333796071443,0.7865593462961691,2.59258770942688,0.0
463,1,463,1,-1,-0.8360821912260731,0.07359912711026051,1.2651604199693844,0.498333796071443,0.7865593462961691,2.6845920085906982,1.0
464,1,464,1,1,0.5756142155160959,0.5836409282515336,1.2651604199693844,0.498333796071443,0.7865593462961691,3.4065518379211426,1.0
465,1,465,1,1,1.597489024146288,0.5836409282515336,1.2651604199693844,0.498333796071443,0.7865593462961691,1.9065556526184082,1.0
466,1,466,-1,1,-0.20717663766948213,-1.553180484120274,1.2651604199693844,0.498333796071443,0.7865593462961691,1.2995562553405762,0.0
467,1,467,1,1,1.8514922956095954,0.5836409282515336,1.2651604199693844,0.498333796071443,0.7865593462961691,1.1165586709976196,0.0
468,1,468,1,1,1.604871318296977,0.5836409282515336,1.2651604199693844,0.498333796071443,0.7865593462961691,2.0255613327026367,1.0
469,1,469,-1,-1,-1.5611914183172595,-2.0632222852615474,1.2651604199693844,0.498333796071443,0.7865593462961691,1.2715566158294678,0.0
470,1,470,1,1,0.7288520754704313,0.5836409282515336,1.2651604199693844,0.498333796071443,0.7865593462961691,4.163496971130371,1.0
471,1,471,-1,1,1.7787145896881693,-1.553180484120274,1.2651604199693844,0.498333796071443,0.7865593462961691,1.5525530576705933,0.0
472,1,472,1,-1,-1.852528992675823,0.07359912711026051,1.2651604199693844,0.498333796071443,0.7865593462961691,1.5055537223815918,1.0
473,1,473,1,1,0.7325594909052386,0.5836409282515336,1.2651604199693844,0.498333796071443,0.7865593462961691,1.6155521869659424,1.0
474,1,474,-1,1,-0.1736647550491892,-1.553180484120274,1.2651604199693844,0.498333796071443,0.7865593462961691,2.4475808143615723,0.0
475,1,475,-1,-1,-2.86880294514875,-2.0632222852615474,1.2651604199693844,0.498333796071443,0.7865593462961691,2.2655725479125977,0.0
476,1,476,1,1,-0.18979466235624143,0.5836409282515336,1.2651604199693844,0.498333796071443,0.7865593462961691,1.0245596170425415,0.0
477,1,477,-1,-1,0.016032091515189695,-2.0632222852615474,1.2651604199693844,0.498333796071443,0.7865593462961691,1.7405506372451782,0.0
478,1,478,1,-1,-0.7373118810566242,0.07359912711026051,1.2651604199693844,0.498333796071443,0.7865593462961691,1.4145548343658447,0.0
479,1,479,1,-1,-2.611439844884485,0.07359912711026051,1.2651604199693844,0.498333796071443,0.7865593462961691,2.045562267303467,0.0
480,1,480,-1,1,1.370705694892188,-1.553180484120274,1.2651604199693844,0.498333796071443,0.7865593462961691,1.1135586500167847,0.0
481,1,481,-1,-1,0.12759960324829578,-2.0632222852615474,1.2651604199693844,0.498333796071443,0.7865593462961691,1.3335559368133545,0.0
482,1,482,-1,-1,-1.4764954651269169,-2.0632222852615474,1.2651604199693844,0.498333796071443,0.7865593462961691,1.0575593709945679,0.0
483,1,483,-1,1,2.5828847288004226,-1.553180484120274,1.2651604199693844,0.498333796071443,0.7865593462961691,1.5715527534484863,0.0
484,1,484,-1,-1,-1.0305502117571255,-2.0632222852615474,1.2651604199693844,0.498333796071443,0.7865593462961691,1.7935503721237183,0.0
485,1,485,-1,-1,-0.09058845242957658,-2.0632222852615474,1.2651604199693844,0.498333796071443,0.7865593462961691,1.3005563020706177,0.0
486,1,486,-1,-1,0.13074831717874824,-2.0632222852615474,1.2651604199693844,0.498333796071443,0.7865593462961691,1.7655503749847412,0.0
487,1,487,1,-1,-1.349993918600112,0.07359912711026051,1.2651604199693844,0.498333796071443,0.7865593462961691,1.6035523414611816,1.0
488,1,488,-1,-1,-0.9819001475373337,-2.0632222852615474,1.2651604199693844,0.498333796071443,0.7865593462961691,1.2025575637817383,0.0
489,1,489,1,1,1.7239597292362334,0.5836409282515336,1.2651604199693844,0.498333796071443,0.7865593462961691,1.3265559673309326,0.0
490,1,490,-1,1,1.4182088496218916,-1.553180484120274,1.2651604199693844,0.498333796071443,0.7865593462961691,1.5325533151626587,0.0
491,1,491,-1,1,1.998057969104768,-1.553180484120274,1.2651604199693844,0.498333796071443,0.7865593462961691,1.2675566673278809,0.0
492,1,492,-1,1,0.724265831338032,-1.553180484120274,1.2651604199693844,0.498333796071443,0.7865593462961691,1.306556224822998,1.0
493,1,493,1,-1,-1.1542898689848728,0.07359912711026051,1.2651604199693844,0.498333796071443,0.7865593462961691,1.8065509796142578,0.0
494,1,494,-1,-1,-0.595874005410842,-2.0632222852615474,1.2651604199693844,0.498333796071443,0.7865593462961691,1.2605568170547485,0.0
495,1,495,-1,-1,-1.4314971399214365,-2.0632222852615474,1.2651604199693844,0.498333796071443,0.7865593462961691,1.288556456565857,0.0
496,1,496,-1,1,0.9658506498579527,-1.553180484120274,1.2651604199693844,0.498333796071443,0.7865593462961691,1.1425583362579346,0.0
497,1,497,-1,-1,-2.643278479317227,-2.0632222852615474,1.2651604199693844,0.498333796071443,0.7865593462961691,1.2035574913024902,0.0
498,1,498,1,1,0.4287571499634889,0.5836409282515336,1.2651604199693844,0.498333796071443,0.7865593462961691,1.8235517740249634,1.0
499,1,499,-1,1,0.3048321843684987,-1.553180484120274,1.2651604199693844,0.498333796071443,0.7865593462961691,1.6885513067245483,0.0
500,2,0,-1,1,1.5944295665273962,-1.3627267196053605,1.6620990957756234,0.5051484938378407,0.8384980422526278,1.5164928436279297,0.0
501,2,1,-1,-1,-1.0352227282950772,-2.3847377735085225,1.6620990957756234,0.5051484938378407,0.8384980422526278,1.5714921951293945,0.0
502,2,2,-1,1,1.007530569891185,-1.3627267196053605,1.6620990957756234,0.5051484938378407,0.8384980422526278,1.7214902639389038,0.0
503,2,3,-1,1,1.796181748093156,-1.3627267196053605,1.6620990957756234,0.5051484938378407,0.8384980422526278,1.4854933023452759,0.0
504,2,4,-1,-1,-2.042367945460059,-2.3847377735085225,1.6620990957756234,0.5051484938378407,0.8384980422526278,2.0054965019226074,0.0
505,2,5,-1,1,-0.5314213042630349,-1.3627267196053605,1.6620990957756234,0.5051484938378407,0.8384980422526278,1.7814894914627075,0.0
506,2,6,-1,1,2.257065239002057,-1.3627267196053605,1.6620990957756234,0.5051484938378407,0.8384980422526278,1.6584911346435547,0.0
507,2,7,1,-1,-0.4826894266573002,0.6166461523957261,1.6620990957756234,0.5051484938378407,0.8384980422526278,2.8165345191955566,1.0
508,2,8,-1,1,0.05692894669544735,-1.3627267196053605,1.6620990957756234,0.5051484938378407,0.8384980422526278,2.5355212688446045,0.0
509,2,9,1,-1,-0.1017779719747568,0.6166461523957261,1.6620990957756234,0.5051484938378407,0.8384980422526278,2.5475218296051025,1.0
510,2,10,-1,1,2.3728758790033666,-1.3627267196053605,1.6620990957756234,0.5051484938378407,0.8384980422526278,1.4724934101104736,0.0
511,2,11,1,-1,-0.3263460199710889,0.6166461523957261,1.6620990957756234,0.5051484938378407,0.8384980422526278,3.534485101699829,1.0
512,2,12,-1,-1,-1.2843196836636717,-2.3847377735085225,1.6620990957756234,0.5051484938378407,0.8384980422526278,1.3824946880340576,0.0
513,2,13,-1,-1,-0.6843673102724224,-2.3847377735085225,1.6620990957756234,0.5051484938378407,0.8384980422526278,1.3364951610565186,0.0
514,2,14,1,-1,-1.5263733183296149,0.6166461523957261,1.6620990957756234,0.5051484938378407,0.8384980422526278,4.578409194946289,1.0
515,2,15,-1,-1,-1.5277091141256913,-2.3847377735085225,1.6620990957756234,0.5051484938378407,0.8384980422526278,1.456493616104126,0.0
516,2,16,1,-1,-0.19001958276792963,0.6166461523957261,1.6620990957756234,0.5051484938378407,0.8384980422526278,1.8124890327453613,1.0
517,2,17,1,1,-1.1267398477422468,1.638657206298888,1.6620990957756234,0.5051484938378407,0.8384980422526278,1.2614961862564087,1.0
518,2,18,-1,-1,0.2683058991788796,-2.3847377735085225,1.6620990957756234,0.5051484938378407,0.8384980422526278,1.6764907836914062,0.0
519,2,19,1,1,2.2830102332754048,1.638657206298888,1.6620990957756234,0.5051484938378407,0.8384980422526278,1.2084968090057373,1.0
520,2,20,-1,-1,-1.6977320467617996,-2.3847377735085225,1.6620990957756234,0.5051484938378407,0.8384980422526278,1.3044955730438232,0.0
521,2,21,1,-1,-1.4498637964832295,0.6166461523957261,1.6620990957756234,0.5051484938378407,0.8384980422526278,2.2005057334899902,1.0
522,2,22,-1,1,0.6251008075488899,-1.3627267196053605,1.6620990957756234,0.5051484938378407,0.8384980422526278,1.787489414215088,0.0
523,2,23,-1,-1,-1.7130725057457616,-2.3847377735085225,1.6620990957756234,0.5051484938378407,0.8384980422526278,1.6664910316467285,0.0
524,2,24,-1,1,1.5205766887353716,-1.3627267196053605,1.6620990957756234,0.5051484938378407,0.8384980422526278,1.7534898519515991,0.0
525,2,25,-1,-1,-1.8098511363285716,-2.3847377735085225,1.6620990957756234,0.5051484938378407,0.8384980422526278,1.33749520778656,0.0
526,2,26,1,1,0.2479798589508111,1.638657206298888,1.6620990957756234,0.5051484938378407,0.8384980422526278,1.3364951610565186,1.0
527,2,27,-1,1,-0.35761141798609697,-1.3627267196053605,1.6620990957756234,0.5051484938378407,0.8384980422526278,2.375513792037964,0.0
528,2,28,1,1,1.9190794446072896,1.638657206298888,1.6620990957756234,0.5051484938378407,0.8384980422526278,2.2535080909729004,1.0
529,2,29,-1,-1,-1.5254926917453426,-2.3847377735085225,1.6620990957756234,0.5051484938378407,0.8384980422526278,1.4854933023452759,0.0
530,2,30,-1,-1,-0.90459093855588,-2.3847377735085225,1.6620990957756234,0.5051484938378407,0.8384980422526278,1.3654948472976685,0.0
531,2,31,1,1,1.3453603360477424,1.638657206298888,1.6620990957756234,0.5051484938378407,0.8384980422526278,1.4154942035675049,1.0
532,2,32,1,1,2.1787292738818245,1.638657206298888,1.6620990957756234,0.5051484938378407,0.8384980422526278,2.403515100479126,1.0
533,2,33,-1,-1,-2.696259733851204,-2.3847377735085225,1.6620990957756234,0.5051484938378407,0.8384980422526278,1.7104904651641846,0.0
534,2,34,-1,1,1.769881765826646,-1.3627267196053605,1.6620990957756234,0.5051484938378407,0.8384980422526278,1.408494234085083,0.0
535,2,35,-1,1,2.301125332740827,-1.3627267196053605,1.6620990957756234,0.5051484938378407,0.8384980422526278,2.2915098667144775,0.0
536,2,36,1,1,2.689042894575829,1.638657206298888,1.6620990957756234,0.5051484938378407,0.8384980422526278,1.9464938640594482,1.0
537,2,37,-1,-1,-1.282191824858129,-2.3847377735085225,1.6620990957756234,0.5051484938378407,0.8384980422526278,1.1894971132278442,0.0
538,2,38,1,-1,-0.9077818289527423,0.6166461523957261,1.6620990957756234,0.5051484938378407,0.8384980422526278,2.0634992122650146,1.0
539,2,39,-1,-1,-1.1902077568377392,-2.3847377735085225,1.6620990957756234,0.5051484938378407,0.8384980422526278,1.2534962892532349,0.0
540,2,40,1,1,1.937669846558752,1.638657206298888,1.6620990957756234,0.5051484938378407,0.8384980422526278,2.2625086307525635,1.0
541,2,41,1,-1,-1.2293381997074389,0.6166461523957261,1.6620990957756234,0.5051484938378407,0.8384980422526278,4.217435359954834,1.0
542,2,42,-1,1,0.5230726183175842,-1.3627267196053605,1.6620990957756234,0.5051484938378407,0.8384980422526278,1.786489486694336,1.0
543,2,43,1,1,0.6881600415560901,1.638657206298888,1.6620990957756234,0.5051484938378407,0.8384980422526278,1.4224941730499268,1.0
544,2,44,-1,-1,-0.8722580494595914,-2.3847377735085225,1.6620990957756234,0.5051484938378407,0.8384980422526278,1.4224941730499268,0.0
545,2,45,-1,-1,-2.895282665364358,-2.3847377735085225,1.6620990957756234,0.5051484938378407,0.8384980422526278,1.1864970922470093,0.0
546,2,46,-1,1,1.2837474795661683,-1.3627267196053605,1.6620990957756234,0.5051484938378407,0.8384980422526278,1.6284914016723633,0.0
547,2,47,-1,-1,-0.2357222322222422,-2.3847377735085225,1.6620990957756234,0.5051484938378407,0.8384980422526278,1.2324965000152588,0.0
548,2,48,-1,-1,-2.6569358021554694,-2.3847377735085225,1.6620990957756234,0.5051484938378407,0.8384980422526278,1.1174980401992798,0.0
549,2,49,-1,1,3.5487946131587225,-1.3627267196053605,1.6620990957756234,0.5051484938378407,0.8384980422526278,1.809489130973816,0.0
550,2,50,-1,-1,-1.931810282549649,-2.3847377735085225,1.6620990957756234,0.5051484938378407,0.8384980422526278,1.2284965515136719,0.0
551,2,51,-1,1,-0.07046654276561637,-1.3627267196053605,1.6620990957756234,0.5051484938378407,0.8384980422526278,2.196505546569824,0.0
552,2,52,1,-1,0.3253992623007995,0.6166461523957261,1.6620990957756234,0.5051484938378407,0.8384980422526278,2.0464985370635986,1.0
553,2,53,1,1,1.6297300266495816,1.638657206298888,1.6620990957756234,0.5051484938378407,0.8384980422526278,1.8334888219833374,1.0
554,2,54,1,1,0.5538355853139524,1.638657206298888,1.6620990957756234,0.5051484938378407,0.8384980422526278,1.4664936065673828,1.0
555,2,55,1,1,1.1023934557636246,1.638657206298888,1.6620990957756234,0.5051484938378407,0.8384980422526278,1.4494937658309937,1.0
556,2,56,-1,-1,-1.0352001284007175,-2.3847377735085225,1.6620990957756234,0.5051484938378407,0.8384980422526278,1.6204915046691895,0.0
557,2,57,1,1,0.626143792126635,1.638657206298888,1.6620990957756234,0.5051484938378407,0.8384980422526278,1.429494023323059,1.0
558,2,58,-1,-1,-2.1582701505268775,-2.3847377735085225,1.6620990957756234,0.5051484938378407,0.8384980422526278,1.2344964742660522,0.0
559,2,59,1,1,-0.8980083091564914,1.638657206298888,1.6620990957756234,0.5051484938378407,0.8384980422526278,1.2804958820343018,1.0
560,2,60,-1,1,1.9336579597431753,-1.3627267196053605,1.6620990957756234,0.5051484938378407,0.8384980422526278,1.2964956760406494,0.0
561,2,61,1,1,-0.14725584571104378,1.638657206298888,1.6620990957756234,0.5051484938378407,0.8384980422526278,1.7734895944595337,1.0
562,2,62,1,1,0.40084845489326604,1.638657206298888,1.6620990957756234,0.5051484938378407,0.8384980422526278,1.5894919633865356,1.0
563,2,63,-1,1,1.5400259477292524,-1.3627267196053605,1.6620990957756234,0.5051484938378407,0.8384980422526278,1.7814894914627075,0.0
564,2,64,1,-1,0.7191793879833566,0.6166461523957261,1.6620990957756234,0.5051484938378407,0.8384980422526278,4.941383361816406,1.0
565,2,65,-1,-1,-2.0110309382184752,-2.3847377735085225,1.6620990957756234,0.5051484938378407,0.8384980422526278,1.3954944610595703,0.0
566,2,66,-1,-1,-0.3817183106237956,-2.3847377735085225,1.6620990957756234,0.5051484938378407,0.8384980422526278,1.7724895477294922,0.0
567,2,67,-1,1,1.808563365471286,-1.3627267196053605,1.6620990957756234,0.5051484938378407,0.8384980422526278,1.757489800453186,0.0
568,2,68,1,1,2.648946460667809,1.638657206298888,1.6620990957756234,0.5051484938378407,0.8384980422526278,2.392514705657959,1.0
569,2,69,-1,1,-0.27819980327002436,-1.3627267196053605,1.6620990957756234,0.5051484938378407,0.8384980422526278,1.8514893054962158,0.0
570,2,70,-1,-1,-1.6236845199483656,-2.3847377735085225,1.6620990957756234,0.5051484938378407,0.8384980422526278,1.5784921646118164,0.0
571,2,71,-1,1,1.7097325382166806,-1.3627267196053605,1.6620990957756234,0.5051484938378407,0.8384980422526278,1.319495439529419,0.0
572,2,72,1,1,1.8053085549975414,1.638657206298888,1.6620990957756234,0.5051484938378407,0.8384980422526278,2.2405076026916504,1.0
573,2,73,1,-1,-1.3314360176336646,0.6166461523957261,1.6620990957756234,0.5051484938378407,0.8384980422526278,1.2814959287643433,1.0
574,2,74,1,-1,-1.8190187447381754,0.6166461523957261,1.6620990957756234,0.5051484938378407,0.8384980422526278,2.0374979972839355,1.0
575,2,75,-1,1,-0.13487325269262107,-1.3627267196053605,1.6620990957756234,0.5051484938378407,0.8384980422526278,2.0364980697631836,0.0
576,2,76,1,1,-0.08155043308809562,1.638657206298888,1.6620990957756234,0.5051484938378407,0.8384980422526278,1.1684973239898682,1.0
577,2,77,1,1,1.498515118877401,1.638657206298888,1.6620990957756234,0.5051484938378407,0.8384980422526278,1.22749662399292,1.0
578,2,78,-1,1,0.985555677510335,-1.3627267196053605,1.6620990957756234,0.5051484938378407,0.8384980422526278,2.436516761779785,0.0
579,2,79,-1,1,1.123295888704758,-1.3627267196053605,1.6620990957756234,0.5051484938378407,0.8384980422526278,2.191505193710327,0.0
580,2,80,-1,1,1.504382430933096,-1.3627267196053605,1.6620990957756234,0.5051484938378407,0.8384980422526278,1.7254902124404907,0.0
581,2,81,-1,-1,-2.124879711451142,-2.3847377735085225,1.6620990957756234,0.5051484938378407,0.8384980422526278,1.4964931011199951,0.0
582,2,82,-1,1,1.6724405638605453,-1.3627267196053605,1.6620990957756234,0.5051484938378407,0.8384980422526278,2.2425076961517334,0.0
583,2,83,1,1,-0.19056619260856378,1.638657206298888,1.6620990957756234,0.5051484938378407,0.8384980422526278,1.6754908561706543,1.0
584,2,84,-1,1,1.8546694123845586,-1.3627267196053605,1.6620990957756234,0.5051484938378407,0.8384980422526278,1.4664936065673828,0.0
585,2,85,-1,1,-1.3666790591726912,-1.3627267196053605,1.6620990957756234,0.5051484938378407,0.8384980422526278,1.1864970922470093,0.0
586,2,86,1,-1,-1.5173313411073015,0.6166461523957261,1.6620990957756234,0.5051484938378407,0.8384980422526278,4.002450942993164,1.0
587,2,87,-1,-1,-2.2075663946914927,-2.3847377735085225,1.6620990957756234,0.5051484938378407,0.8384980422526278,1.3264952898025513,0.0
588,2,88,1,1,-0.631024560789609,1.638657206298888,1.6620990957756234,0.5051484938378407,0.8384980422526278,2.11350154876709,1.0
589,2,89,1,-1,-0.9193396651979565,0.6166461523957261,1.6620990957756234,0.5051484938378407,0.8384980422526278,7.363207817077637,1.0
590,2,90,-1,1,-0.9984092073672708,-1.3627267196053605,1.6620990957756234,0.5051484938378407,0.8384980422526278,1.9764952659606934,0.0
591,2,91,1,1,-0.6770245816851759,1.638657206298888,1.6620990957756234,0.5051484938378407,0.8384980422526278,2.8285350799560547,1.0
592,2,92,1,-1,-2.4074184890487733,0.6166461523957261,1.6620990957756234,0.5051484938378407,0.8384980422526278,1.3584949970245361,1.0
593,2,93,-1,1,1.2962060236634314,-1.3627267196053605,1.6620990957756234,0.5051484938378407,0.8384980422526278,2.370513677597046,0.0
594,2,94,1,-1,-2.8400805522327905,0.6166461523957261,1.6620990957756234,0.5051484938378407,0.8384980422526278,2.8315351009368896,1.0
595,2,95,-1,1,1.0899519467126724,-1.3627267196053605,1.6620990957756234,0.5051484938378407,0.8384980422526278,4.6534037590026855,0.0
596,2,96,-1,1,0.600137833080137,-1.3627267196053605,1.6620990957756234,0.5051484938378407,0.8384980422526278,1.7984893321990967,0.0
597,2,97,-1,1,-0.2887310252455271,-1.3627267196053605,1.6620990957756234,0.5051484938378407,0.8384980422526278,1.7544898986816406,0.0
598,2,98,-1,1,0.3462804941286436,-1.3627267196053605,1.6620990957756234,0.5051484938378407,0.8384980422526278,2.7905333042144775,0.0
599,2,99,-1,1,0.2984597277299551,-1.3627267196053605,1.6620990957756234,0.5051484938378407,0.8384980422526278,1.4264941215515137,0.0
600,2,100,1,-1,-1.0196492828975483,0.6166461523957261,1.6620990957756234,0.5051484938378407,0.8384980422526278,2.2135062217712402,1.0
601,2,101,1,-1,0.11147295991783812,0.6166461523957261,1.6620990957756234,0.5051484938378407,0.8384980422526278,10.036584854125977,1.0
602,2,102,1,1,1.3743403109116963,1.638657206298888,1.6620990957756234,0.5051484938378407,0.8384980422526278,2.11350154876709,1.0
603,2,103,1,1,-0.948897448166611,1.638657206298888,1.6620990957756234,0.5051484938378407,0.8384980422526278,1.640491247177124,1.0
604,2,104,1,1,0.39847019553080876,1.638657206298888,1.6620990957756234,0.5051484938378407,0.8384980422526278,1.2214967012405396,1.0
605,2,105,1,1,-0.29050415831576437,1.638657206298888,1.6620990957756234,0.5051484938378407,0.8384980422526278,1.264496088027954,1.0
606,2,106,1,1,1.8405274839117614,1.638657206298888,1.6620990957756234,0.5051484938378407,0.8384980422526278,2.418515920639038,1.0
607,2,107,1,-1,-2.01305336162321,0.6166461523957261,1.6620990957756234,0.5051484938378407,0.8384980422526278,1.2364964485168457,1.0
608,2,108,-1,-1,-0.974400866822704,-2.3847377735085225,1.6620990957756234,0.5051484938378407,0.8384980422526278,1.275496006011963,0.0
609,2,109,-1,-1,-1.6485273642422467,-2.3847377735085225,1.6620990957756234,0.5051484938378407,0.8384980422526278,2.444517135620117,0.0
610,2,110,1,1,2.0861372841047388,1.638657206298888,1.6620990957756234,0.5051484938378407,0.8384980422526278,1.3034956455230713,1.0
611,2,111,1,-1,-1.274425378043734,0.6166461523957261,1.6620990957756234,0.5051484938378407,0.8384980422526278,3.1835105419158936,0.0
612,2,112,-1,-1,-2.4819271113838672,-2.3847377735085225,1.6620990957756234,0.5051484938378407,0.8384980422526278,1.075498342514038,0.0
613,2,113,1,1,1.4172327691433957,1.638657206298888,1.6620990957756234,0.5051484938378407,0.8384980422526278,1.780489444732666,1.0
614,2,114,-1,-1,-0.9239954334203864,-2.3847377735085225,1.6620990957756234,0.5051484938378407,0.8384980422526278,1.5844919681549072,0.0
615,2,115,-1,-1,0.9596248989383438,-2.3847377735085225,1.6620990957756234,0.5051484938378407,0.8384980422526278,1.6794908046722412,0.0
616,2,116,1,-1,-0.16080654483385404,0.6166461523957261,1.6620990957756234,0.5051484938378407,0.8384980422526278,2.2905099391937256,1.0
617,2,117,-1,1,1.1280460311016038,-1.3627267196053605,1.6620990957756234,0.5051484938378407,0.8384980422526278,4.81939172744751,0.0
618,2,118,1,-1,-2.0975147374443877,0.6166461523957261,1.6620990957756234,0.5051484938378407,0.8384980422526278,4.486415863037109,1.0
619,2,119,-1,-1,-1.6990583038299034,-2.3847377735085225,1.6620990957756234,0.5051484938378407,0.8384980422526278,1.5614923238754272,0.0
620,2,120,1,1,0.9915461043586302,1.638657206298888,1.6620990957756234,0.5051484938378407,0.8384980422526278,2.0614991188049316,1.0
621,2,121,-1,1,2.1408275006600492,-1.3627267196053605,1.6620990957756234,0.5051484938378407,0.8384980422526278,5.3193559646606445,0.0
622,2,122,-1,-1,-0.40389567006170646,-2.3847377735085225,1.6620990957756234,0.5051484938378407,0.8384980422526278,1.5844919681549072,0.0
623,2,123,1,-1,-0.9433387298339391,0.6166461523957261,1.6620990957756234,0.5051484938378407,0.8384980422526278,2.0114967823028564,1.0
624,2,124,1,1,1.3197758880296604,1.638657206298888,1.6620990957756234,0.5051484938378407,0.8384980422526278,1.3064955472946167,1.0
625,2,125,1,-1,0.2769133972928437,0.6166461523957261,1.6620990957756234,0.5051484938378407,0.8384980422526278,4.117442607879639,1.0
626,2,126,-1,1,0.5001056928602337,-1.3627267196053605,1.6620990957756234,0.5051484938378407,0.8384980422526278,1.5354926586151123,0.0
627,2,127,-1,-1,-1.7141921005054823,-2.3847377735085225,1.6620990957756234,0.5051484938378407,0.8384980422526278,1.7564897537231445,0.0
628,2,128,1,-1,-1.2729450783980958,0.6166461523957261,1.6620990957756234,0.5051484938378407,0.8384980422526278,6.554266452789307,0.0
629,2,129,-1,-1,0.08418943473175045,-2.3847377735085225,1.6620990957756234,0.5051484938378407,0.8384980422526278,1.3814946413040161,0.0
630,2,130,-1,-1,-1.5045043487233292,-2.3847377735085225,1.6620990957756234,0.5051484938378407,0.8384980422526278,1.2834959030151367,1.0
631,2,131,-1,-1,-0.542391752444054,-2.3847377735085225,1.6620990957756234,0.5051484938378407,0.8384980422526278,2.2995102405548096,0.0
632,2,132,-1,-1,-2.6723837534277655,-2.3847377735085225,1.6620990957756234,0.5051484938378407,0.8384980422526278,1.5364925861358643,0.0
633,2,133,-1,1,2.0793405715649316,-1.3627267196053605,1.6620990957756234,0.5051484938378407,0.8384980422526278,1.3684947490692139,0.0
634,2,134,1,-1,-0.24725365445197456,0.6166461523957261,1.6620990957756234,0.5051484938378407,0.8384980422526278,4.7813944816589355,1.0
635,2,135,-1,1,0.7533957736695809,-1.3627267196053605,1.6620990957756234,0.5051484938378407,0.8384980422526278,2.13350248336792,0.0
636,2,136,1,-1,-0.4594150841811563,0.6166461523957261,1.6620990957756234,0.5051484938378407,0.8384980422526278,1.9894957542419434,0.0
637,2,137,-1,-1,-0.06837778633222213,-2.3847377735085225,1.6620990957756234,0.5051484938378407,0.8384980422526278,1.7274901866912842,0.0
638,2,138,-1,1,0.5456326772757429,-1.3627267196053605,1.6620990957756234,0.5051484938378407,0.8384980422526278,2.129502296447754,0.0
639,2,139,1,1,-0.35950423800029774,1.638657206298888,1.6620990957756234,0.5051484938378407,0.8384980422526278,2.4765186309814453,1.0
640,2,140,1,1,1.8254670023487671,1.638657206298888,1.6620990957756234,0.5051484938378407,0.8384980422526278,1.591491937637329,1.0
641,2,141,-1,-1,-2.0984717219943363,-2.3847377735085225,1.6620990957756234,0.5051484938378407,0.8384980422526278,1.5114929676055908,0.0
642,2,142,1,1,1.6126836402927678,1.638657206298888,1.6620990957756234,0.5051484938378407,0.8384980422526278,1.7894893884658813,1.0
643,2,143,-1,-1,0.23890070112889572,-2.3847377735085225,1.6620990957756234,0.5051484938378407,0.8384980422526278,1.5244927406311035,0.0
644,2,144,1,1,2.769714239905512,1.638657206298888,1.6620990957756234,0.5051484938378407,0.8384980422526278,3.5484840869903564,1.0
645,2,145,-1,1,1.8365603865198126,-1.3627267196053605,1.6620990957756234,0.5051484938378407,0.8384980422526278,1.4134942293167114,0.0
646,2,146,-1,1,1.6534918478993785,-1.3627267196053605,1.6620990957756234,0.5051484938378407,0.8384980422526278,2.111501455307007,0.0
647,2,147,-1,-1,-0.5556509979022084,-2.3847377735085225,1.6620990957756234,0.5051484938378407,0.8384980422526278,1.4464938640594482,0.0
648,2,148,-1,1,-0.1780461176626098,-1.3627267196053605,1.6620990957756234,0.5051484938378407,0.8384980422526278,2.9545271396636963,0.0
649,2,149,-1,1,0.9309409480515894,-1.3627267196053605,1.6620990957756234,0.5051484938378407,0.8384980422526278,2.691528558731079,0.0
650,2,150,-1,1,1.6093896073472378,-1.3627267196053605,1.6620990957756234,0.5051484938378407,0.8384980422526278,1.504492998123169,0.0
651,2,151,-1,1,2.2962289178513133,-1.3627267196053605,1.6620990957756234,0.5051484938378407,0.8384980422526278,1.9364933967590332,0.0
652,2,152,-1,-1,-1.7851814570142577,-2.3847377735085225,1.6620990957756234,0.5051484938378407,0.8384980422526278,1.5244927406311035,0.0
653,2,153,1,1,-0.029369251575656508,1.638657206298888,1.6620990957756234,0.5051484938378407,0.8384980422526278,1.4344940185546875,1.0
654,2,154,-1,-1,-0.5578360773414655,-2.3847377735085225,1.6620990957756234,0.5051484938378407,0.8384980422526278,1.7334901094436646,0.0
655,2,155,1,-1,-0.5762641654110543,0.6166461523957261,1.6620990957756234,0.5051484938378407,0.8384980422526278,2.960526704788208,1.0
656,2,156,1,-1,1.2115456868032375,0.6166461523957261,1.6620990957756234,0.5051484938378407,0.8384980422526278,3.407494306564331,1.0
657,2,157,-1,-1,-0.867320875596092,-2.3847377735085225,1.6620990957756234,0.5051484938378407,0.8384980422526278,1.5424926280975342,0.0
658,2,158,1,1,2.6885228358023108,1.638657206298888,1.6620990957756234,0.5051484938378407,0.8384980422526278,1.460493564605713,1.0
659,2,159,-1,-1,-3.1953073502466305,-2.3847377735085225,1.6620990957756234,0.5051484938378407,0.8384980422526278,1.414494276046753,0.0
660,2,160,-1,-1,-0.899976041609926,-2.3847377735085225,1.6620990957756234,0.5051484938378407,0.8384980422526278,1.9984962940216064,0.0
661,2,161,1,1,0.22344113683405142,1.638657206298888,1.6620990957756234,0.5051484938378407,0.8384980422526278,1.4744935035705566,1.0
662,2,162,-1,1,1.192963876546208,-1.3627267196053605,1.6620990957756234,0.5051484938378407,0.8384980422526278,1.5814920663833618,0.0
663,2,163,1,-1,-1.4889670546361544,0.6166461523957261,1.6620990957756234,0.5051484938378407,0.8384980422526278,2.344512462615967,1.0
664,2,164,-1,1,1.1406702454528956,-1.3627267196053605,1.6620990957756234,0.5051484938378407,0.8384980422526278,1.3024955987930298,0.0
665,2,165,-1,-1,-0.2906540179813534,-2.3847377735085225,1.6620990957756234,0.5051484938378407,0.8384980422526278,1.2314965724945068,0.0
666,2,166,1,1,0.2434692070037845,1.638657206298888,1.6620990957756234,0.5051484938378407,0.8384980422526278,1.1224979162216187,1.0
667,2,167,-1,-1,-0.271268973676389,-2.3847377735085225,1.6620990957756234,0.5051484938378407,0.8384980422526278,1.2554962635040283,0.0
668,2,168,-1,-1,1.0405924385163536,-2.3847377735085225,1.6620990957756234,0.5051484938378407,0.8384980422526278,1.3874945640563965,0.0
669,2,169,1,-1,-1.7478893290673956,0.6166461523957261,1.6620990957756234,0.5051484938378407,0.8384980422526278,3.7224714756011963,1.0
670,2,170,-1,-1,-1.1567980246844252,-2.3847377735085225,1.6620990957756234,0.5051484938378407,0.8384980422526278,1.3284952640533447,0.0
671,2,171,1,1,2.0905145330058827,1.638657206298888,1.6620990957756234,0.5051484938378407,0.8384980422526278,1.414494276046753,1.0
672,2,172,1,1,1.3237394232036008,1.638657206298888,1.6620990957756234,0.5051484938378407,0.8384980422526278,1.3354952335357666,1.0
673,2,173,-1,-1,-1.3399262052549799,-2.3847377735085225,1.6620990957756234,0.5051484938378407,0.8384980422526278,1.5834920406341553,0.0
674,2,174,1,1,1.0159368281084684,1.638657206298888,1.6620990957756234,0.5051484938378407,0.8384980422526278,1.6044917106628418,1.0
675,2,175,-1,-1,-1.3052735930072008,-2.3847377735085225,1.6620990957756234,0.5051484938378407,0.8384980422526278,1.7724895477294922,0.0
676,2,176,1,-1,-2.720659274448069,0.6166461523957261,1.6620990957756234,0.5051484938378407,0.8384980422526278,1.9614944458007812,1.0
677,2,177,1,-1,-0.37064572923763717,0.6166461523957261,1.6620990957756234,0.5051484938378407,0.8384980422526278,2.2215065956115723,1.0
678,2,178,-1,-1,-1.6057995478410865,-2.3847377735085225,1.6620990957756234,0.5051484938378407,0.8384980422526278,1.9744951725006104,0.0
679,2,179,1,-1,-0.5671684272739728,0.6166461523957261,1.6620990957756234,0.5051484938378407,0.8384980422526278,1.905491828918457,1.0
680,2,180,1,1,2.5207912034521973,1.638657206298888,1.6620990957756234,0.5051484938378407,0.8384980422526278,2.2855095863342285,1.0
681,2,181,-1,1,1.724836614923357,-1.3627267196053605,1.6620990957756234,0.5051484938378407,0.8384980422526278,2.0855002403259277,0.0
682,2,182,1,1,2.259983947926357,1.638657206298888,1.6620990957756234,0.5051484938378407,0.8384980422526278,1.3904945850372314,1.0
683,2,183,-1,-1,0.3156624260672163,-2.3847377735085225,1.6620990957756234,0.5051484938378407,0.8384980422526278,1.1864970922470093,0.0
684,2,184,1,1,0.4184347279323535,1.638657206298888,1.6620990957756234,0.5051484938378407,0.8384980422526278,1.2784959077835083,1.0
685,2,185,1,-1,-0.7299086100335872,0.6166461523957261,1.6620990957756234,0.5051484938378407,0.8384980422526278,2.2655086517333984,1.0
686,2,186,1,1,2.080060041874752,1.638657206298888,1.6620990957756234,0.5051484938378407,0.8384980422526278,2.092500686645508,1.0
687,2,187,-1,-1,-0.14677124713321565,-2.3847377735085225,1.6620990957756234,0.5051484938378407,0.8384980422526278,1.338495135307312,0.0
688,2,188,-1,1,-0.19047482569639507,-1.3627267196053605,1.6620990957756234,0.5051484938378407,0.8384980422526278,1.925492763519287,0.0
689,2,189,1,1,1.2070563127047638,1.638657206298888,1.6620990957756234,0.5051484938378407,0.8384980422526278,2.116501808166504,1.0
690,2,190,1,1,0.5017065116296024,1.638657206298888,1.6620990957756234,0.5051484938378407,0.8384980422526278,1.3474950790405273,1.0
691,2,191,1,1,-0.2522387129818613,1.638657206298888,1.6620990957756234,0.5051484938378407,0.8384980422526278,1.41249418258667,1.0
692,2,192,-1,1,-0.16583559305167817,-1.3627267196053605,1.6620990957756234,0.5051484938378407,0.8384980422526278,1.1924970149993896,0.0
693,2,193,1,1,1.8785360024440574,1.638657206298888,1.6620990957756234,0.5051484938378407,0.8384980422526278,1.529492735862732,1.0
694,2,194,-1,1,-0.9977341293981588,-1.3627267196053605,1.6620990957756234,0.5051484938378407,0.8384980422526278,2.900531053543091,0.0
695,2,195,-1,-1,-0.29762294884093277,-2.3847377735085225,1.6620990957756234,0.5051484938378407,0.8384980422526278,1.3984944820404053,0.0
696,2,196,-1,1,3.1644756837872605,-1.3627267196053605,1.6620990957756234,0.5051484938378407,0.8384980422526278,1.6104917526245117,0.0
697,2,197,1,1,-0.6406489681357119,1.638657206298888,1.6620990957756234,0.5051484938378407,0.8384980422526278,1.9574942588806152,1.0
698,2,198,-1,-1,-1.45808604640451,-2.3847377735085225,1.6620990957756234,0.5051484938378407,0.8384980422526278,1.179497241973877,0.0
699,2,199,1,1,0.8502230322647011,1.638657206298888,1.6620990957756234,0.5051484938378407,0.8384980422526278,1.688490629196167,1.0
700,2,200,1,-1,-2.535197130328067,0.6166461523957261,1.6620990957756234,0.5051484938378407,0.8384980422526278,4.996379375457764,1.0
701,2,201,-1,1,0.25792072789271026,-1.3627267196053605,1.6620990957756234,0.5051484938378407,0.8384980422526278,2.8665335178375244,0.0
702,2,202,1,-1,-1.6327757060632484,0.6166461523957261,1.6620990957756234,0.5051484938378407,0.8384980422526278,3.066519021987915,0.0
703,2,203,1,1,1.815469392633453,1.638657206298888,1.6620990957756234,0.5051484938378407,0.8384980422526278,1.3244953155517578,1.0
704,2,204,1,-1,-0.6157911174041084,0.6166461523957261,1.6620990957756234,0.5051484938378407,0.8384980422526278,2.673527717590332,1.0
705,2,205,1,-1,-2.3219617176373055,0.6166461523957261,1.6620990957756234,0.5051484938378407,0.8384980422526278,3.666475534439087,1.0
706,2,206,-1,1,1.9570919577681973,-1.3627267196053605,1.6620990957756234,0.5051484938378407,0.8384980422526278,3.9064581394195557,0.0
707,2,207,-1,-1,1.0812892012971198,-2.3847377735085225,1.6620990957756234,0.5051484938378407,0.8384980422526278,1.2834959030151367,0.0
708,2,208,1,-1,-2.249610661925134,0.6166461523957261,1.6620990957756234,0.5051484938378407,0.8384980422526278,1.7204902172088623,1.0
709,2,209,1,1,0.47425435342792155,1.638657206298888,1.6620990957756234,0.5051484938378407,0.8384980422526278,1.502493143081665,1.0
710,2,210,1,-1,-0.17095289124673785,0.6166461523957261,1.6620990957756234,0.5051484938378407,0.8384980422526278,4.054447174072266,1.0
711,2,211,1,-1,-1.514522011657216,0.6166461523957261,1.6620990957756234,0.5051484938378407,0.8384980422526278,2.5255208015441895,1.0
712,2,212,-1,-1,-1.0869460627217737,-2.3847377735085225,1.6620990957756234,0.5051484938378407,0.8384980422526278,1.1184979677200317,0.0
713,2,213,1,1,0.6475773917341711,1.638657206298888,1.6620990957756234,0.5051484938378407,0.8384980422526278,1.3654948472976685,1.0
714,2,214,1,1,1.3088592024413757,1.638657206298888,1.6620990957756234,0.5051484938378407,0.8384980422526278,2.438516855239868,1.0
715,2,215,-1,1,0.44225368845682267,-1.3627267196053605,1.6620990957756234,0.5051484938378407,0.8384980422526278,1.1784971952438354,0.0
716,2,216,-1,-1,-0.5333270307461027,-2.3847377735085225,1.6620990957756234,0.5051484938378407,0.8384980422526278,1.6734908819198608,0.0
717,2,217,1,-1,-2.1635555874358428,0.6166461523957261,1.6620990957756234,0.5051484938378407,0.8384980422526278,2.5075199604034424,1.0
718,2,218,1,-1,-0.30858925048620867,0.6166461523957261,1.6620990957756234,0.5051484938378407,0.8384980422526278,3.9694535732269287,1.0
719,2,219,1,1,0.014273651375177998,1.638657206298888,1.6620990957756234,0.5051484938378407,0.8384980422526278,2.3235113620758057,1.0
720,2,220,-1,1,2.575928824502554,-1.3627267196053605,1.6620990957756234,0.5051484938378407,0.8384980422526278,1.6534911394119263,0.0
721,2,221,1,1,1.5928610487450885,1.638657206298888,1.6620990957756234,0.5051484938378407,0.8384980422526278,1.8074891567230225,1.0
722,2,222,-1,-1,0.011170007301820606,-2.3847377735085225,1.6620990957756234,0.5051484938378407,0.8384980422526278,1.179497241973877,0.0
723,2,223,1,-1,0.5113999490706598,0.6166461523957261,1.6620990957756234,0.5051484938378407,0.8384980422526278,1.595491886138916,1.0
724,2,224,-1,1,1.7754610493046785,-1.3627267196053605,1.6620990957756234,0.5051484938378407,0.8384980422526278,3.602480173110962,0.0
725,2,225,1,1,0.019057357790039586,1.638657206298888,1.6620990957756234,0.5051484938378407,0.8384980422526278,1.68449068069458,1.0
726,2,226,-1,1,1.303463594284626,-1.3627267196053605,1.6620990957756234,0.5051484938378407,0.8384980422526278,2.0264976024627686,0.0
727,2,227,1,-1,-1.414846493971899,0.6166461523957261,1.6620990957756234,0.5051484938378407,0.8384980422526278,1.7044904232025146,1.0
728,2,228,-1,-1,-0.11643032865742786,-2.3847377735085225,1.6620990957756234,0.5051484938378407,0.8384980422526278,1.4944932460784912,0.0
729,2,229,-1,1,0.32159508325082575,-1.3627267196053605,1.6620990957756234,0.5051484938378407,0.8384980422526278,1.275496006011963,0.0
730,2,230,1,-1,-2.9657618047515077,0.6166461523957261,1.6620990957756234,0.5051484938378407,0.8384980422526278,1.7624897956848145,1.0
731,2,231,-1,-1,-2.009733937176976,-2.3847377735085225,1.6620990957756234,0.5051484938378407,0.8384980422526278,1.3014956712722778,0.0
732,2,232,-1,1,1.5668173907903054,-1.3627267196053605,1.6620990957756234,0.5051484938378407,0.8384980422526278,1.4644935131072998,0.0
733,2,233,1,-1,-3.5018939005349585,0.6166461523957261,1.6620990957756234,0.5051484938378407,0.8384980422526278,2.7425310611724854,1.0
734,2,234,1,1,1.4288031679612114,1.638657206298888,1.6620990957756234,0.5051484938378407,0.8384980422526278,1.9314930438995361,1.0
735,2,235,1,1,0.2207050461868859,1.638657206298888,1.6620990957756234,0.5051484938378407,0.8384980422526278,1.7734895944595337,1.0
736,2,236,-1,1,1.590686488744526,-1.3627267196053605,1.6620990957756234,0.5051484938378407,0.8384980422526278,2.195505380630493,0.0
737,2,237,1,1,0.42608384816282574,1.638657206298888,1.6620990957756234,0.5051484938378407,0.8384980422526278,2.5435216426849365,1.0
738,2,238,1,-1,-2.8262983330629456,0.6166461523957261,1.6620990957756234,0.5051484938378407,0.8384980422526278,3.0185225009918213,1.0
739,2,239,-1,-1,0.4519103725637672,-2.3847377735085225,1.6620990957756234,0.5051484938378407,0.8384980422526278,1.4534937143325806,0.0
740,2,240,-1,-1,0.011272312745581603,-2.3847377735085225,1.6620990957756234,0.5051484938378407,0.8384980422526278,1.3444950580596924,0.0
741,2,241,1,-1,-0.09432658258477311,0.6166461523957261,1.6620990957756234,0.5051484938378407,0.8384980422526278,3.2265074253082275,1.0
742,2,242,-1,1,2.3730478558067,-1.3627267196053605,1.6620990957756234,0.5051484938378407,0.8384980422526278,1.6514911651611328,0.0
743,2,243,-1,-1,-1.0460389830590748,-2.3847377735085225,1.6620990957756234,0.5051484938378407,0.8384980422526278,1.3724946975708008,0.0
744,2,244,-1,1,1.5786467324169204,-1.3627267196053605,1.6620990957756234,0.5051484938378407,0.8384980422526278,1.8354887962341309,0.0
745,2,245,1,1,0.8878620407398591,1.638657206298888,1.6620990957756234,0.5051484938378407,0.8384980422526278,1.4884932041168213,1.0
746,2,246,-1,1,1.6500828712421047,-1.3627267196053605,1.6620990957756234,0.5051484938378407,0.8384980422526278,1.338495135307312,0.0
747,2,247,-1,-1,-2.7940078585870394,-2.3847377735085225,1.6620990957756234,0.5051484938378407,0.8384980422526278,1.6044917106628418,0.0
748,2,248,-1,-1,-1.7007004544354902,-2.3847377735085225,1.6620990957756234,0.5051484938378407,0.8384980422526278,1.5884919166564941,0.0
749,2,249,1,-1,-0.5636624747594858,0.6166461523957261,1.6620990957756234,0.5051484938378407,0.8384980422526278,1.908492088317871,1.0
750,2,250,1,1,1.8585793331230622,1.638657206298888,1.6620990957756234,0.5051484938378407,0.8384980422526278,1.7034904956817627,1.0
751,2,251,-1,-1,-0.8283604587206149,-2.3847377735085225,1.6620990957756234,0.5051484938378407,0.8384980422526278,1.2064968347549438,0.0
752,2,252,1,1,-0.8842980236391131,1.638657206298888,1.6620990957756234,0.5051484938378407,0.8384980422526278,1.2864958047866821,1.0
753,2,253,-1,-1,-0.6099488883216445,-2.3847377735085225,1.6620990957756234,0.5051484938378407,0.8384980422526278,1.2174967527389526,0.0
