,subj_idx,trial_idx,S,X,M,v,a,z,t,rt,response
0,1,0,-1,1,0.7858143069645172,-0.24348392381099887,1.6976342206853006,0.675775543377902,0.24476169526874053,2.161795139312744,1.0
1,1,1,-1,1,-0.6696402494058433,-0.24348392381099887,1.6976342206853006,0.675775543377902,0.24476169526874053,0.5777609348297119,1.0
2,1,2,-1,1,-0.15703420718334304,-0.24348392381099887,1.6976342206853006,0.675775543377902,0.24476169526874053,3.8436832427978516,0.0
3,1,3,1,-1,1.0882519438928069,1.207149344291717,1.6976342206853006,0.675775543377902,0.24476169526874053,1.5187652111053467,1.0
4,1,4,-1,-1,-2.163206104507732,-0.12467289302010381,1.6976342206853006,0.675775543377902,0.24476169526874053,1.0687546730041504,1.0
5,1,5,-1,1,-0.871788002938609,-0.24348392381099887,1.6976342206853006,0.675775543377902,0.24476169526874053,0.5497612953186035,1.0
6,1,6,-1,-1,-1.4404466379868015,-0.12467289302010381,1.6976342206853006,0.675775543377902,0.24476169526874053,3.2027297019958496,1.0
7,1,7,-1,-1,1.9157224771552535,-0.12467289302010381,1.6976342206853006,0.675775543377902,0.24476169526874053,2.828756809234619,1.0
8,1,8,1,-1,-1.0618314957274206,1.207149344291717,1.6976342206853006,0.675775543377902,0.24476169526874053,0.49776196479797363,1.0
9,1,9,1,-1,0.33817206973250974,1.207149344291717,1.6976342206853006,0.675775543377902,0.24476169526874053,0.45976194739341736,1.0
10,1,10,-1,-1,-0.9209275558046686,-0.12467289302010381,1.6976342206853006,0.675775543377902,0.24476169526874053,2.079791307449341,0.0
11,1,11,-1,1,0.205151141235966,-0.24348392381099887,1.6976342206853006,0.675775543377902,0.24476169526874053,3.3357200622558594,0.0
12,1,12,-1,-1,0.33377006489250904,-0.12467289302010381,1.6976342206853006,0.675775543377902,0.24476169526874053,3.7796878814697266,0.0
13,1,13,1,-1,-0.6310055452882873,1.207149344291717,1.6976342206853006,0.675775543377902,0.24476169526874053,2.768761157989502,1.0
14,1,14,1,-1,1.074369586406646,1.207149344291717,1.6976342206853006,0.675775543377902,0.24476169526874053,0.8217578530311584,1.0
15,1,15,-1,1,0.09745911847639757,-0.24348392381099887,1.6976342206853006,0.675775543377902,0.24476169526874053,1.701773762702942,0.0
16,1,16,1,-1,-0.7246328672722812,1.207149344291717,1.6976342206853006,0.675775543377902,0.24476169526874053,0.5927607417106628,1.0
17,1,17,-1,1,2.676039131328135,-0.24348392381099887,1.6976342206853006,0.675775543377902,0.24476169526874053,0.6967594027519226,1.0
18,1,18,1,1,0.3406932743499959,1.0883383135008218,1.6976342206853006,0.675775543377902,0.24476169526874053,0.46476197242736816,1.0
19,1,19,1,-1,0.9826612746938992,1.207149344291717,1.6976342206853006,0.675775543377902,0.24476169526874053,0.5807608962059021,1.0
20,1,20,1,-1,1.0174216402374772,1.207149344291717,1.6976342206853006,0.675775543377902,0.24476169526874053,0.8137579560279846,1.0
21,1,21,1,1,0.36197061190221724,1.0883383135008218,1.6976342206853006,0.675775543377902,0.24476169526874053,0.6607598662376404,1.0
22,1,22,1,1,0.9543748108248936,1.0883383135008218,1.6976342206853006,0.675775543377902,0.24476169526874053,1.2347525358200073,1.0
23,1,23,1,-1,-0.36970037304644315,1.207149344291717,1.6976342206853006,0.675775543377902,0.24476169526874053,0.595760703086853,1.0
24,1,24,1,-1,-0.9244147335916574,1.207149344291717,1.6976342206853006,0.675775543377902,0.24476169526874053,1.3537575006484985,1.0
25,1,25,1,-1,1.453367101908301,1.207149344291717,1.6976342206853006,0.675775543377902,0.24476169526874053,1.2117527723312378,1.0
26,1,26,-1,1,-0.41145449168559456,-0.24348392381099887,1.6976342206853006,0.675775543377902,0.24476169526874053,0.9177566170692444,0.0
27,1,27,-1,1,-0.9451799090338173,-0.24348392381099887,1.6976342206853006,0.675775543377902,0.24476169526874053,6.173514366149902,0.0
28,1,28,-1,1,0.3655378560657315,-0.24348392381099887,1.6976342206853006,0.675775543377902,0.24476169526874053,3.06973934173584,0.0
29,1,29,1,-1,-1.4012297893104328,1.207149344291717,1.6976342206853006,0.675775543377902,0.24476169526874053,0.8227578401565552,1.0
30,1,30,-1,1,0.09655911263084677,-0.24348392381099887,1.6976342206853006,0.675775543377902,0.24476169526874053,4.3136491775512695,1.0
31,1,31,-1,-1,-0.6090288905344078,-0.12467289302010381,1.6976342206853006,0.675775543377902,0.24476169526874053,1.1647534370422363,1.0
32,1,32,-1,1,-0.8644570167119783,-0.24348392381099887,1.6976342206853006,0.675775543377902,0.24476169526874053,5.841538429260254,0.0
33,1,33,1,-1,-0.07106036993748238,1.207149344291717,1.6976342206853006,0.675775543377902,0.24476169526874053,0.6237603425979614,1.0
34,1,34,-1,-1,0.9063975624143348,-0.12467289302010381,1.6976342206853006,0.675775543377902,0.24476169526874053,8.330398559570312,0.0
35,1,35,-1,1,1.1000694752694962,-0.24348392381099887,1.6976342206853006,0.675775543377902,0.24476169526874053,0.7057592868804932,1.0
36,1,36,1,-1,0.07128758864205105,1.207149344291717,1.6976342206853006,0.675775543377902,0.24476169526874053,1.3577576875686646,1.0
37,1,37,-1,1,-0.5637158358336518,-0.24348392381099887,1.6976342206853006,0.675775543377902,0.24476169526874053,5.643552780151367,0.0
38,1,38,1,-1,-1.0458036973475338,1.207149344291717,1.6976342206853006,0.675775543377902,0.24476169526874053,1.572767734527588,1.0
39,1,39,1,-1,0.3923529735729381,1.207149344291717,1.6976342206853006,0.675775543377902,0.24476169526874053,0.5267615914344788,1.0
40,1,40,1,-1,-0.04502083566134619,1.207149344291717,1.6976342206853006,0.675775543377902,0.24476169526874053,2.1997969150543213,1.0
41,1,41,1,1,-0.39778348242178097,1.0883383135008218,1.6976342206853006,0.675775543377902,0.24476169526874053,0.8457575440406799,1.0
42,1,42,1,1,1.9273668157624937,1.0883383135008218,1.6976342206853006,0.675775543377902,0.24476169526874053,2.8037586212158203,1.0
43,1,43,-1,-1,0.9945412633492952,-0.12467289302010381,1.6976342206853006,0.675775543377902,0.24476169526874053,2.7127652168273926,1.0
44,1,44,1,1,-0.8686937432760984,1.0883383135008218,1.6976342206853006,0.675775543377902,0.24476169526874053,1.9167838096618652,1.0
45,1,45,-1,-1,-0.06837734920617858,-0.12467289302010381,1.6976342206853006,0.675775543377902,0.24476169526874053,1.4197605848312378,1.0
46,1,46,1,1,1.876364645060128,1.0883383135008218,1.6976342206853006,0.675775543377902,0.24476169526874053,0.5537612438201904,1.0
47,1,47,1,-1,-1.429020617854609,1.207149344291717,1.6976342206853006,0.675775543377902,0.24476169526874053,0.735758900642395,1.0
48,1,48,-1,-1,0.26327428620120497,-0.12467289302010381,1.6976342206853006,0.675775543377902,0.24476169526874053,0.6367601752281189,1.0
49,1,49,-1,1,-1.7294034084453316,-0.24348392381099887,1.6976342206853006,0.675775543377902,0.24476169526874053,7.340429782867432,0.0
50,1,50,1,-1,-0.6030855001734706,1.207149344291717,1.6976342206853006,0.675775543377902,0.24476169526874053,0.8397576212882996,1.0
51,1,51,-1,1,0.6184183756979605,-0.24348392381099887,1.6976342206853006,0.675775543377902,0.24476169526874053,0.9747558832168579,1.0
52,1,52,-1,-1,0.8645236201513536,-0.12467289302010381,1.6976342206853006,0.675775543377902,0.24476169526874053,2.933749198913574,0.0
53,1,53,-1,1,1.8807691571241005,-0.24348392381099887,1.6976342206853006,0.675775543377902,0.24476169526874053,1.9667861461639404,0.0
54,1,54,-1,-1,-2.0898158236449484,-0.12467289302010381,1.6976342206853006,0.675775543377902,0.24476169526874053,8.106374740600586,0.0
55,1,55,-1,1,-0.059382539150763566,-0.24348392381099887,1.6976342206853006,0.675775543377902,0.24476169526874053,2.0157883167266846,0.0
56,1,56,1,-1,-0.5133035144631093,1.207149344291717,1.6976342206853006,0.675775543377902,0.24476169526874053,1.8257795572280884,1.0
57,1,57,-1,1,-1.7694141527960148,-0.24348392381099887,1.6976342206853006,0.675775543377902,0.24476169526874053,3.2687249183654785,0.0
58,1,58,-1,1,-1.875757082262277,-0.24348392381099887,1.6976342206853006,0.675775543377902,0.24476169526874053,9.33880615234375,1.0
59,1,59,1,-1,-0.6204050629898946,1.207149344291717,1.6976342206853006,0.675775543377902,0.24476169526874053,0.573760986328125,1.0
60,1,60,-1,-1,0.14210677657271298,-0.12467289302010381,1.6976342206853006,0.675775543377902,0.24476169526874053,1.2047529220581055,1.0
61,1,61,1,1,0.7800739937821883,1.0883383135008218,1.6976342206853006,0.675775543377902,0.24476169526874053,2.834756374359131,1.0
62,1,62,-1,-1,0.3411957676358966,-0.12467289302010381,1.6976342206853006,0.675775543377902,0.24476169526874053,2.4337854385375977,1.0
63,1,63,1,1,-0.8595313274801598,1.0883383135008218,1.6976342206853006,0.675775543377902,0.24476169526874053,0.7837583422660828,1.0
64,1,64,1,1,-0.4194050595406481,1.0883383135008218,1.6976342206853006,0.675775543377902,0.24476169526874053,0.6827595829963684,1.0
65,1,65,-1,1,0.6852312939800063,-0.24348392381099887,1.6976342206853006,0.675775543377902,0.24476169526874053,4.027669906616211,1.0
66,1,66,-1,-1,-1.7558620132645715,-0.12467289302010381,1.6976342206853006,0.675775543377902,0.24476169526874053,2.4177865982055664,0.0
67,1,67,-1,-1,0.2017265820667054,-0.12467289302010381,1.6976342206853006,0.675775543377902,0.24476169526874053,4.878608226776123,1.0
68,1,68,1,1,0.7991836821786767,1.0883383135008218,1.6976342206853006,0.675775543377902,0.24476169526874053,0.8597573637962341,1.0
69,1,69,-1,1,0.10399324839120253,-0.24348392381099887,1.6976342206853006,0.675775543377902,0.24476169526874053,1.3497573137283325,1.0
70,1,70,1,-1,-1.8920403232074545,1.207149344291717,1.6976342206853006,0.675775543377902,0.24476169526874053,0.8397576212882996,1.0
71,1,71,-1,-1,0.19072414386908304,-0.12467289302010381,1.6976342206853006,0.675775543377902,0.24476169526874053,1.618769884109497,1.0
72,1,72,1,1,0.2759180455025759,1.0883383135008218,1.6976342206853006,0.675775543377902,0.24476169526874053,1.60076904296875,1.0
73,1,73,-1,1,1.2644555231155479,-0.24348392381099887,1.6976342206853006,0.675775543377902,0.24476169526874053,1.4007596969604492,1.0
74,1,74,-1,-1,-0.2155025001963396,-0.12467289302010381,1.6976342206853006,0.675775543377902,0.24476169526874053,7.763399124145508,0.0
75,1,75,1,1,2.90909178759845,1.0883383135008218,1.6976342206853006,0.675775543377902,0.24476169526874053,0.44176191091537476,1.0
76,1,76,1,-1,0.9314213703316516,1.207149344291717,1.6976342206853006,0.675775543377902,0.24476169526874053,0.5857608318328857,1.0
77,1,77,-1,-1,-1.1514397293390632,-0.12467289302010381,1.6976342206853006,0.675775543377902,0.24476169526874053,1.604769229888916,1.0
78,1,78,-1,-1,-0.39575965428790516,-0.12467289302010381,1.6976342206853006,0.675775543377902,0.24476169526874053,11.286593437194824,1.0
79,1,79,1,-1,0.1989321207415517,1.207149344291717,1.6976342206853006,0.675775543377902,0.24476169526874053,1.1907531023025513,1.0
80,1,80,-1,-1,-0.6543514180886808,-0.12467289302010381,1.6976342206853006,0.675775543377902,0.24476169526874053,3.196730136871338,0.0
81,1,81,1,-1,-0.038727894974635024,1.207149344291717,1.6976342206853006,0.675775543377902,0.24476169526874053,0.7457588315010071,1.0
82,1,82,1,-1,0.8002081331733814,1.207149344291717,1.6976342206853006,0.675775543377902,0.24476169526874053,1.107754111289978,1.0
83,1,83,-1,-1,-0.6124569389651119,-0.12467289302010381,1.6976342206853006,0.675775543377902,0.24476169526874053,3.5417051315307617,0.0
84,1,84,1,-1,0.16893903232088509,1.207149344291717,1.6976342206853006,0.675775543377902,0.24476169526874053,1.8237794637680054,1.0
85,1,85,1,1,0.5398121291159402,1.0883383135008218,1.6976342206853006,0.675775543377902,0.24476169526874053,0.5137617588043213,1.0
86,1,86,1,1,0.03397350120515123,1.0883383135008218,1.6976342206853006,0.675775543377902,0.24476169526874053,0.4487619400024414,1.0
87,1,87,-1,-1,0.07757754927197798,-0.12467289302010381,1.6976342206853006,0.675775543377902,0.24476169526874053,8.977660179138184,0.0
88,1,88,-1,1,-0.20993776548577886,-0.24348392381099887,1.6976342206853006,0.675775543377902,0.24476169526874053,1.320755958557129,1.0
89,1,89,1,1,-0.7717911399365049,1.0883383135008218,1.6976342206853006,0.675775543377902,0.24476169526874053,3.0967373847961426,1.0
90,1,90,1,-1,-0.2804397731606008,1.207149344291717,1.6976342206853006,0.675775543377902,0.24476169526874053,1.2367525100708008,1.0
91,1,91,-1,-1,-0.4306808064267393,-0.12467289302010381,1.6976342206853006,0.675775543377902,0.24476169526874053,2.6267714500427246,0.0
92,1,92,1,-1,-0.847091245975645,1.207149344291717,1.6976342206853006,0.675775543377902,0.24476169526874053,1.199752926826477,1.0
93,1,93,-1,-1,1.3932440083403388,-0.12467289302010381,1.6976342206853006,0.675775543377902,0.24476169526874053,5.176586627960205,0.0
94,1,94,-1,-1,0.986605331758655,-0.12467289302010381,1.6976342206853006,0.675775543377902,0.24476169526874053,4.219655990600586,1.0
95,1,95,1,-1,-1.756951005552185,1.207149344291717,1.6976342206853006,0.675775543377902,0.24476169526874053,1.044754981994629,1.0
96,1,96,1,1,1.7173016155523846,1.0883383135008218,1.6976342206853006,0.675775543377902,0.24476169526874053,0.6707597374916077,1.0
97,1,97,-1,-1,-1.7023565550436661,-0.12467289302010381,1.6976342206853006,0.675775543377902,0.24476169526874053,1.858781099319458,0.0
98,1,98,-1,1,-0.030629749801116643,-0.24348392381099887,1.6976342206853006,0.675775543377902,0.24476169526874053,0.6357601881027222,1.0
99,1,99,-1,1,-0.11187818195956246,-0.24348392381099887,1.6976342206853006,0.675775543377902,0.24476169526874053,3.772688388824463,0.0
100,1,100,1,-1,-1.303362725123615,1.207149344291717,1.6976342206853006,0.675775543377902,0.24476169526874053,2.359790802001953,1.0
101,1,101,1,-1,-1.3789895621833645,1.207149344291717,1.6976342206853006,0.675775543377902,0.24476169526874053,0.7297589778900146,1.0
102,1,102,-1,-1,-1.0598850234724257,-0.12467289302010381,1.6976342206853006,0.675775543377902,0.24476169526874053,1.3357566595077515,1.0
103,1,103,-1,1,-2.2675518241804764,-0.24348392381099887,1.6976342206853006,0.675775543377902,0.24476169526874053,2.0087881088256836,0.0
104,1,104,1,1,0.06173253310252334,1.0883383135008218,1.6976342206853006,0.675775543377902,0.24476169526874053,3.172731876373291,1.0
105,1,105,-1,-1,-0.11781522279147505,-0.12467289302010381,1.6976342206853006,0.675775543377902,0.24476169526874053,1.4807634353637695,1.0
106,1,106,-1,-1,-1.6546827709607979,-0.12467289302010381,1.6976342206853006,0.675775543377902,0.24476169526874053,3.6486973762512207,1.0
107,1,107,-1,-1,0.24999817003879832,-0.12467289302010381,1.6976342206853006,0.675775543377902,0.24476169526874053,4.688621997833252,0.0
108,1,108,-1,1,0.8568956428818321,-0.24348392381099887,1.6976342206853006,0.675775543377902,0.24476169526874053,1.1487536430358887,0.0
109,1,109,-1,1,-2.8330776157809097,-0.24348392381099887,1.6976342206853006,0.675775543377902,0.24476169526874053,11.521688461303711,0.0
110,1,110,-1,1,0.002745568900944434,-0.24348392381099887,1.6976342206853006,0.675775543377902,0.24476169526874053,6.354501247406006,0.0
111,1,111,-1,-1,1.2622848358317162,-0.12467289302010381,1.6976342206853006,0.675775543377902,0.24476169526874053,1.7407755851745605,1.0
112,1,112,1,1,0.09633726635302947,1.0883383135008218,1.6976342206853006,0.675775543377902,0.24476169526874053,0.5267615914344788,1.0
113,1,113,-1,-1,-0.699262494934108,-0.12467289302010381,1.6976342206853006,0.675775543377902,0.24476169526874053,0.959756076335907,0.0
114,1,114,-1,-1,0.7820586899352427,-0.12467289302010381,1.6976342206853006,0.675775543377902,0.24476169526874053,5.570558071136475,0.0
115,1,115,1,1,-0.7607009040773902,1.0883383135008218,1.6976342206853006,0.675775543377902,0.24476169526874053,0.9727559089660645,1.0
116,1,116,1,1,-0.11836682066851183,1.0883383135008218,1.6976342206853006,0.675775543377902,0.24476169526874053,1.2547528743743896,1.0
117,1,117,1,-1,1.1058145216177035,1.207149344291717,1.6976342206853006,0.675775543377902,0.24476169526874053,0.40576183795928955,1.0
118,1,118,1,-1,-2.069600323384299,1.207149344291717,1.6976342206853006,0.675775543377902,0.24476169526874053,0.8247578144073486,1.0
119,1,119,-1,-1,0.5707493043724329,-0.12467289302010381,1.6976342206853006,0.675775543377902,0.24476169526874053,2.8447556495666504,0.0
120,1,120,1,1,1.2695287415064933,1.0883383135008218,1.6976342206853006,0.675775543377902,0.24476169526874053,0.9567561149597168,1.0
121,1,121,1,1,1.943261750418448,1.0883383135008218,1.6976342206853006,0.675775543377902,0.24476169526874053,0.5427613854408264,1.0
122,1,122,1,1,0.2091235634052554,1.0883383135008218,1.6976342206853006,0.675775543377902,0.24476169526874053,1.1457536220550537,1.0
123,1,123,-1,1,0.2755086901480972,-0.24348392381099887,1.6976342206853006,0.675775543377902,0.24476169526874053,2.600773334503174,0.0
124,1,124,-1,-1,0.450473624861489,-0.12467289302010381,1.6976342206853006,0.675775543377902,0.24476169526874053,2.8377561569213867,0.0
125,1,125,1,1,0.518792677903546,1.0883383135008218,1.6976342206853006,0.675775543377902,0.24476169526874053,0.687759518623352,1.0
126,1,126,-1,1,-0.9247317008585694,-0.24348392381099887,1.6976342206853006,0.675775543377902,0.24476169526874053,3.8036861419677734,1.0
127,1,127,1,1,0.04780865413763748,1.0883383135008218,1.6976342206853006,0.675775543377902,0.24476169526874053,1.3827588558197021,1.0
128,1,128,1,-1,0.39866816991209864,1.207149344291717,1.6976342206853006,0.675775543377902,0.24476169526874053,0.7427588105201721,1.0
129,1,129,-1,-1,1.0297381603314384,-0.12467289302010381,1.6976342206853006,0.675775543377902,0.24476169526874053,3.3307204246520996,1.0
130,1,130,-1,-1,-0.3303920416015663,-0.12467289302010381,1.6976342206853006,0.675775543377902,0.24476169526874053,4.981600761413574,0.0
131,1,131,-1,1,0.7515795159864147,-0.24348392381099887,1.6976342206853006,0.675775543377902,0.24476169526874053,1.4407615661621094,0.0
132,1,132,-1,1,-0.17978658911554773,-0.24348392381099887,1.6976342206853006,0.675775543377902,0.24476169526874053,0.595760703086853,1.0
133,1,133,-1,1,-2.035088363836444,-0.24348392381099887,1.6976342206853006,0.675775543377902,0.24476169526874053,4.914605617523193,0.0
134,1,134,-1,-1,0.5410340204548056,-0.12467289302010381,1.6976342206853006,0.675775543377902,0.24476169526874053,3.601700782775879,1.0
135,1,135,1,1,-2.165773558039212,1.0883383135008218,1.6976342206853006,0.675775543377902,0.24476169526874053,1.0997542142868042,1.0
136,1,136,1,-1,-0.36130555920630675,1.207149344291717,1.6976342206853006,0.675775543377902,0.24476169526874053,1.2637532949447632,1.0
137,1,137,1,-1,-0.9882246320038789,1.207149344291717,1.6976342206853006,0.675775543377902,0.24476169526874053,3.574702739715576,1.0
138,1,138,-1,-1,0.051399651460457704,-0.12467289302010381,1.6976342206853006,0.675775543377902,0.24476169526874053,0.8697572350502014,1.0
139,1,139,1,-1,-1.856734305342866,1.207149344291717,1.6976342206853006,0.675775543377902,0.24476169526874053,0.6937594413757324,1.0
140,1,140,1,-1,-0.10496456002007576,1.207149344291717,1.6976342206853006,0.675775543377902,0.24476169526874053,1.8497806787490845,1.0
141,1,141,-1,-1,-2.0779097259688553,-0.12467289302010381,1.6976342206853006,0.675775543377902,0.24476169526874053,3.575702667236328,0.0
142,1,142,-1,1,0.9200223944979465,-0.24348392381099887,1.6976342206853006,0.675775543377902,0.24476169526874053,1.6237701177597046,0.0
143,1,143,-1,1,0.14806860581458745,-0.24348392381099887,1.6976342206853006,0.675775543377902,0.24476169526874053,4.353646278381348,0.0
144,1,144,-1,-1,0.7525637456105291,-0.12467289302010381,1.6976342206853006,0.675775543377902,0.24476169526874053,5.049595832824707,0.0
145,1,145,1,1,-0.697988025444665,1.0883383135008218,1.6976342206853006,0.675775543377902,0.24476169526874053,3.278724193572998,1.0
146,1,146,-1,1,1.139825154087606,-0.24348392381099887,1.6976342206853006,0.675775543377902,0.24476169526874053,2.2497987747192383,1.0
147,1,147,-1,-1,-1.2944048281971603,-0.12467289302010381,1.6976342206853006,0.675775543377902,0.24476169526874053,0.46476197242736816,1.0
148,1,148,1,-1,-1.1000072531316736,1.207149344291717,1.6976342206853006,0.675775543377902,0.24476169526874053,0.6927594542503357,1.0
149,1,149,1,-1,0.3852939180348628,1.207149344291717,1.6976342206853006,0.675775543377902,0.24476169526874053,0.5647611021995544,1.0
150,1,150,1,1,-0.8444827187399254,1.0883383135008218,1.6976342206853006,0.675775543377902,0.24476169526874053,1.6197699308395386,1.0
151,1,151,-1,-1,0.09968072149105021,-0.12467289302010381,1.6976342206853006,0.675775543377902,0.24476169526874053,1.1267539262771606,0.0
152,1,152,1,1,-0.49636251778166174,1.0883383135008218,1.6976342206853006,0.675775543377902,0.24476169526874053,0.5077618360519409,1.0
153,1,153,-1,1,-0.8014599582680586,-0.24348392381099887,1.6976342206853006,0.675775543377902,0.24476169526874053,1.2717536687850952,0.0
154,1,154,-1,-1,-0.5985288429951676,-0.12467289302010381,1.6976342206853006,0.675775543377902,0.24476169526874053,1.62076997756958,0.0
155,1,155,1,1,0.8255316325476679,1.0883383135008218,1.6976342206853006,0.675775543377902,0.24476169526874053,4.332647800445557,1.0
156,1,156,-1,1,-1.335255479415358,-0.24348392381099887,1.6976342206853006,0.675775543377902,0.24476169526874053,3.2307276725769043,1.0
157,1,157,-1,-1,0.4946678527445094,-0.12467289302010381,1.6976342206853006,0.675775543377902,0.24476169526874053,6.253508567810059,1.0
158,1,158,1,1,-0.9905727836704659,1.0883383135008218,1.6976342206853006,0.675775543377902,0.24476169526874053,1.6887731552124023,1.0
159,1,159,1,1,0.7982021750525296,1.0883383135008218,1.6976342206853006,0.675775543377902,0.24476169526874053,0.6187604069709778,1.0
160,1,160,1,1,-0.46650196230606855,1.0883383135008218,1.6976342206853006,0.675775543377902,0.24476169526874053,0.6687597632408142,1.0
161,1,161,1,-1,0.3396126413249289,1.207149344291717,1.6976342206853006,0.675775543377902,0.24476169526874053,0.7147591710090637,1.0
162,1,162,1,1,0.4532499965893853,1.0883383135008218,1.6976342206853006,0.675775543377902,0.24476169526874053,0.536761462688446,1.0
163,1,163,-1,-1,-0.7319439269305971,-0.12467289302010381,1.6976342206853006,0.675775543377902,0.24476169526874053,9.284784317016602,0.0
164,1,164,1,-1,0.21788119158417302,1.207149344291717,1.6976342206853006,0.675775543377902,0.24476169526874053,1.4137603044509888,1.0
165,1,165,-1,1,1.288279042882327,-0.24348392381099887,1.6976342206853006,0.675775543377902,0.24476169526874053,0.7327589392662048,1.0
166,1,166,-1,1,-0.5251835424855831,-0.24348392381099887,1.6976342206853006,0.675775543377902,0.24476169526874053,1.1787532567977905,0.0
167,1,167,-1,1,-0.8431248913333186,-0.24348392381099887,1.6976342206853006,0.675775543377902,0.24476169526874053,3.8266844749450684,0.0
168,1,168,1,1,1.7468396602510212,1.0883383135008218,1.6976342206853006,0.675775543377902,0.24476169526874053,1.6977735757827759,0.0
169,1,169,-1,1,0.06333950731284844,-0.24348392381099887,1.6976342206853006,0.675775543377902,0.24476169526874053,3.6966938972473145,0.0
170,1,170,1,-1,-0.05756745319677282,1.207149344291717,1.6976342206853006,0.675775543377902,0.24476169526874053,1.0007555484771729,1.0
171,1,171,1,-1,-0.07273573007903003,1.207149344291717,1.6976342206853006,0.675775543377902,0.24476169526874053,4.067667007446289,1.0
172,1,172,-1,-1,-0.26276746326536704,-0.12467289302010381,1.6976342206853006,0.675775543377902,0.24476169526874053,3.126735210418701,1.0
173,1,173,-1,1,-1.3054983616559,-0.24348392381099887,1.6976342206853006,0.675775543377902,0.24476169526874053,0.8497574925422668,0.0
174,1,174,-1,-1,-0.1979457789292351,-0.12467289302010381,1.6976342206853006,0.675775543377902,0.24476169526874053,2.154794931411743,0.0
175,1,175,-1,1,-1.601180656437342,-0.24348392381099887,1.6976342206853006,0.675775543377902,0.24476169526874053,9.890028953552246,1.0
176,1,176,-1,-1,-0.9328250847243661,-0.12467289302010381,1.6976342206853006,0.675775543377902,0.24476169526874053,2.3737897872924805,1.0
177,1,177,-1,1,1.0435439406016196,-0.24348392381099887,1.6976342206853006,0.675775543377902,0.24476169526874053,1.3807587623596191,1.0
178,1,178,-1,-1,0.09595626140206952,-0.12467289302010381,1.6976342206853006,0.675775543377902,0.24476169526874053,4.4006428718566895,0.0
179,1,179,1,-1,-1.6711189630871364,1.207149344291717,1.6976342206853006,0.675775543377902,0.24476169526874053,0.5167617201805115,1.0
180,1,180,1,-1,-0.9755510449268351,1.207149344291717,1.6976342206853006,0.675775543377902,0.24476169526874053,1.1697533130645752,1.0
181,1,181,1,1,0.16288909267409196,1.0883383135008218,1.6976342206853006,0.675775543377902,0.24476169526874053,1.1477535963058472,1.0
182,1,182,-1,1,0.3884802850854515,-0.24348392381099887,1.6976342206853006,0.675775543377902,0.24476169526874053,0.5077618360519409,1.0
183,1,183,1,-1,1.331001848639486,1.207149344291717,1.6976342206853006,0.675775543377902,0.24476169526874053,1.173753261566162,1.0
184,1,184,1,1,0.5284785411123832,1.0883383135008218,1.6976342206853006,0.675775543377902,0.24476169526874053,0.7037593126296997,1.0
185,1,185,-1,1,-1.2498464977207249,-0.24348392381099887,1.6976342206853006,0.675775543377902,0.24476169526874053,5.085593223571777,0.0
186,1,186,1,-1,-1.1868949339922001,1.207149344291717,1.6976342206853006,0.675775543377902,0.24476169526874053,1.344757080078125,1.0
187,1,187,1,1,1.1378860021242656,1.0883383135008218,1.6976342206853006,0.675775543377902,0.24476169526874053,0.9147566556930542,1.0
188,1,188,-1,-1,-1.3758905420156091,-0.12467289302010381,1.6976342206853006,0.675775543377902,0.24476169526874053,0.8717572093009949,1.0
189,1,189,-1,1,0.47606686632278017,-0.24348392381099887,1.6976342206853006,0.675775543377902,0.24476169526874053,3.127735137939453,0.0
190,1,190,1,1,-1.7632203814936993,1.0883383135008218,1.6976342206853006,0.675775543377902,0.24476169526874053,2.09279203414917,1.0
191,1,191,-1,-1,0.7892226248424942,-0.12467289302010381,1.6976342206853006,0.675775543377902,0.24476169526874053,1.5367660522460938,0.0
192,1,192,-1,1,-1.1938106344555128,-0.24348392381099887,1.6976342206853006,0.675775543377902,0.24476169526874053,0.4537619352340698,1.0
193,1,193,1,-1,0.6422660079083241,1.207149344291717,1.6976342206853006,0.675775543377902,0.24476169526874053,0.981755793094635,1.0
194,1,194,-1,-1,-0.8404665623486095,-0.12467289302010381,1.6976342206853006,0.675775543377902,0.24476169526874053,2.4747824668884277,0.0
195,1,195,1,-1,-1.2883938253507004,1.207149344291717,1.6976342206853006,0.675775543377902,0.24476169526874053,1.1927530765533447,1.0
196,1,196,-1,-1,0.2854279542763405,-0.12467289302010381,1.6976342206853006,0.675775543377902,0.24476169526874053,3.625699043273926,0.0
197,1,197,-1,-1,-1.3175710138972365,-0.12467289302010381,1.6976342206853006,0.675775543377902,0.24476169526874053,0.65475994348526,1.0
198,1,198,-1,-1,-0.06063932972581994,-0.12467289302010381,1.6976342206853006,0.675775543377902,0.24476169526874053,0.514761745929718,1.0
199,1,199,-1,-1,-0.7441901568766086,-0.12467289302010381,1.6976342206853006,0.675775543377902,0.24476169526874053,1.5087647438049316,0.0
200,1,200,1,-1,-0.026040118163434156,1.207149344291717,1.6976342206853006,0.675775543377902,0.24476169526874053,0.5047618746757507,1.0
201,1,201,1,-1,0.3027679147301019,1.207149344291717,1.6976342206853006,0.675775543377902,0.24476169526874053,0.7517587542533875,1.0
202,1,202,1,1,-0.6170379771034169,1.0883383135008218,1.6976342206853006,0.675775543377902,0.24476169526874053,0.8467575311660767,1.0
203,1,203,1,-1,0.11574469033365643,1.207149344291717,1.6976342206853006,0.675775543377902,0.24476169526874053,1.7327752113342285,1.0
204,1,204,-1,1,-1.1893955767824418,-0.24348392381099887,1.6976342206853006,0.675775543377902,0.24476169526874053,3.2647252082824707,0.0
205,1,205,1,1,-1.2710525946996452,1.0883383135008218,1.6976342206853006,0.675775543377902,0.24476169526874053,0.4217618703842163,1.0
206,1,206,-1,-1,-0.8883488089091335,-0.12467289302010381,1.6976342206853006,0.675775543377902,0.24476169526874053,8.08737564086914,1.0
207,1,207,-1,1,2.0207836965038593,-0.24348392381099887,1.6976342206853006,0.675775543377902,0.24476169526874053,3.7396907806396484,0.0
208,1,208,-1,-1,-0.09145469180996242,-0.12467289302010381,1.6976342206853006,0.675775543377902,0.24476169526874053,1.6937733888626099,1.0
209,1,209,1,-1,0.9508393420922812,1.207149344291717,1.6976342206853006,0.675775543377902,0.24476169526874053,1.2517527341842651,1.0
210,1,210,-1,1,-0.12250627348454794,-0.24348392381099887,1.6976342206853006,0.675775543377902,0.24476169526874053,1.872781753540039,0.0
211,1,211,1,1,0.1863310400151178,1.0883383135008218,1.6976342206853006,0.675775543377902,0.24476169526874053,2.5407776832580566,1.0
212,1,212,1,1,-0.8766717487989605,1.0883383135008218,1.6976342206853006,0.675775543377902,0.24476169526874053,1.084754467010498,1.0
213,1,213,1,1,-0.3183673802969829,1.0883383135008218,1.6976342206853006,0.675775543377902,0.24476169526874053,1.6647720336914062,1.0
214,1,214,-1,1,0.45420063196322824,-0.24348392381099887,1.6976342206853006,0.675775543377902,0.24476169526874053,1.8737818002700806,0.0
215,1,215,-1,1,1.0864822890812096,-0.24348392381099887,1.6976342206853006,0.675775543377902,0.24476169526874053,1.4767632484436035,1.0
216,1,216,1,-1,-1.8428685113589514,1.207149344291717,1.6976342206853006,0.675775543377902,0.24476169526874053,1.493764042854309,1.0
217,1,217,1,1,0.30224066326766064,1.0883383135008218,1.6976342206853006,0.675775543377902,0.24476169526874053,0.8697572350502014,1.0
218,1,218,1,1,-1.0298231482757205,1.0883383135008218,1.6976342206853006,0.675775543377902,0.24476169526874053,0.8547574281692505,1.0
219,1,219,-1,-1,0.39070629011007074,-0.12467289302010381,1.6976342206853006,0.675775543377902,0.24476169526874053,1.6387708187103271,1.0
220,1,220,-1,-1,0.09239365645304344,-0.12467289302010381,1.6976342206853006,0.675775543377902,0.24476169526874053,3.6496973037719727,0.0
221,1,221,1,-1,0.44466281923450635,1.207149344291717,1.6976342206853006,0.675775543377902,0.24476169526874053,0.8167579174041748,1.0
222,1,222,-1,1,-0.6192652904785602,-0.24348392381099887,1.6976342206853006,0.675775543377902,0.24476169526874053,1.9147837162017822,1.0
223,1,223,-1,1,-0.25418334345499355,-0.24348392381099887,1.6976342206853006,0.675775543377902,0.24476169526874053,3.4227137565612793,0.0
224,1,224,1,1,1.284127145921487,1.0883383135008218,1.6976342206853006,0.675775543377902,0.24476169526874053,1.2367525100708008,1.0
225,1,225,-1,1,-0.411326261972641,-0.24348392381099887,1.6976342206853006,0.675775543377902,0.24476169526874053,0.5697610378265381,1.0
226,1,226,-1,-1,0.863606922886076,-0.12467289302010381,1.6976342206853006,0.675775543377902,0.24476169526874053,3.2477264404296875,1.0
227,1,227,-1,1,0.8247209144746293,-0.24348392381099887,1.6976342206853006,0.675775543377902,0.24476169526874053,0.6927594542503357,1.0
228,1,228,-1,1,-0.536632306002491,-0.24348392381099887,1.6976342206853006,0.675775543377902,0.24476169526874053,5.633553504943848,0.0
229,1,229,1,-1,1.2691917820567682,1.207149344291717,1.6976342206853006,0.675775543377902,0.24476169526874053,1.449761986732483,1.0
230,1,230,1,1,0.2575541840698933,1.0883383135008218,1.6976342206853006,0.675775543377902,0.24476169526874053,0.9847557544708252,1.0
231,1,231,-1,1,-0.8811796778633406,-0.24348392381099887,1.6976342206853006,0.675775543377902,0.24476169526874053,2.4377851486206055,0.0
232,1,232,1,1,-1.188045148621822,1.0883383135008218,1.6976342206853006,0.675775543377902,0.24476169526874053,0.6827595829963684,1.0
233,1,233,-1,1,-0.2685860990429174,-0.24348392381099887,1.6976342206853006,0.675775543377902,0.24476169526874053,1.5777679681777954,0.0
234,1,234,1,-1,-0.02841585101670456,1.207149344291717,1.6976342206853006,0.675775543377902,0.24476169526874053,0.7197591066360474,1.0
235,1,235,-1,-1,-1.4893497536577136,-0.12467289302010381,1.6976342206853006,0.675775543377902,0.24476169526874053,2.6697683334350586,1.0
236,1,236,-1,-1,-0.18024251991790952,-0.12467289302010381,1.6976342206853006,0.675775543377902,0.24476169526874053,0.7677585482597351,1.0
237,1,237,1,1,2.281312512348317,1.0883383135008218,1.6976342206853006,0.675775543377902,0.24476169526874053,1.356757640838623,1.0
238,1,238,-1,-1,1.4105284986648314,-0.12467289302010381,1.6976342206853006,0.675775543377902,0.24476169526874053,2.46578311920166,0.0
239,1,239,-1,-1,0.5335502339503455,-0.12467289302010381,1.6976342206853006,0.675775543377902,0.24476169526874053,2.3547911643981934,0.0
240,1,240,1,-1,-0.3300165274200255,1.207149344291717,1.6976342206853006,0.675775543377902,0.24476169526874053,1.7127742767333984,1.0
241,1,241,-1,1,1.0304068347042366,-0.24348392381099887,1.6976342206853006,0.675775543377902,0.24476169526874053,2.488781452178955,0.0
242,1,242,-1,1,2.1529421307411525,-0.24348392381099887,1.6976342206853006,0.675775543377902,0.24476169526874053,0.5067618489265442,1.0
243,1,243,-1,-1,-0.3715421639818764,-0.12467289302010381,1.6976342206853006,0.675775543377902,0.24476169526874053,3.2497262954711914,0.0
244,1,244,1,-1,1.2493682091346032,1.207149344291717,1.6976342206853006,0.675775543377902,0.24476169526874053,0.8877570033073425,1.0
245,1,245,-1,1,1.804690226549716,-0.24348392381099887,1.6976342206853006,0.675775543377902,0.24476169526874053,0.9497562050819397,1.0
246,1,246,1,1,2.066039053848992,1.0883383135008218,1.6976342206853006,0.675775543377902,0.24476169526874053,2.106792688369751,1.0
247,1,247,-1,-1,-1.0979841375856334,-0.12467289302010381,1.6976342206853006,0.675775543377902,0.24476169526874053,2.2927956581115723,0.0
248,1,248,-1,-1,-0.3114637465835748,-0.12467289302010381,1.6976342206853006,0.675775543377902,0.24476169526874053,0.9907556772232056,1.0
249,1,249,-1,1,-0.14944635564626468,-0.24348392381099887,1.6976342206853006,0.675775543377902,0.24476169526874053,2.0027878284454346,1.0
250,1,250,-1,-1,0.4468783317969549,-0.12467289302010381,1.6976342206853006,0.675775543377902,0.24476169526874053,1.044754981994629,0.0
251,1,251,1,1,0.24768844898323839,1.0883383135008218,1.6976342206853006,0.675775543377902,0.24476169526874053,0.9617560505867004,1.0
252,1,252,-1,1,0.2118560420795998,-0.24348392381099887,1.6976342206853006,0.675775543377902,0.24476169526874053,1.489763855934143,1.0
253,1,253,1,1,-1.1797699216110582,1.0883383135008218,1.6976342206853006,0.675775543377902,0.24476169526874053,0.9977555871009827,1.0
254,1,254,-1,1,-0.7189354096710073,-0.24348392381099887,1.6976342206853006,0.675775543377902,0.24476169526874053,2.0227887630462646,0.0
255,1,255,-1,-1,-1.359022302188926,-0.12467289302010381,1.6976342206853006,0.675775543377902,0.24476169526874053,2.42978572845459,0.0
256,1,256,1,1,-0.529914716484769,1.0883383135008218,1.6976342206853006,0.675775543377902,0.24476169526874053,1.4417616128921509,1.0
257,1,257,1,1,-0.1677589030128377,1.0883383135008218,1.6976342206853006,0.675775543377902,0.24476169526874053,0.6307602524757385,1.0
258,1,258,1,1,-0.05080586873464675,1.0883383135008218,1.6976342206853006,0.675775543377902,0.24476169526874053,1.5357660055160522,1.0
259,1,259,1,1,0.322461934349701,1.0883383135008218,1.6976342206853006,0.675775543377902,0.24476169526874053,0.4337618947029114,1.0
260,1,260,-1,-1,0.502677004815907,-0.12467289302010381,1.6976342206853006,0.675775543377902,0.24476169526874053,2.5807747840881348,1.0
261,1,261,-1,1,1.0581212809913412,-0.24348392381099887,1.6976342206853006,0.675775543377902,0.24476169526874053,3.943675994873047,0.0
262,1,262,1,1,-1.5179069390325948,1.0883383135008218,1.6976342206853006,0.675775543377902,0.24476169526874053,0.9577561020851135,1.0
263,1,263,-1,-1,-0.027726376983671044,-0.12467289302010381,1.6976342206853006,0.675775543377902,0.24476169526874053,3.385716438293457,1.0
264,1,264,1,-1,-1.9117373145326926,1.207149344291717,1.6976342206853006,0.675775543377902,0.24476169526874053,2.469782829284668,1.0
265,1,265,1,-1,1.06862520342353,1.207149344291717,1.6976342206853006,0.675775543377902,0.24476169526874053,0.3507617115974426,1.0
266,1,266,-1,-1,-2.2930807919077307,-0.12467289302010381,1.6976342206853006,0.675775543377902,0.24476169526874053,5.238582134246826,0.0
267,1,267,1,-1,-0.640826658962986,1.207149344291717,1.6976342206853006,0.675775543377902,0.24476169526874053,1.1437536478042603,1.0
268,1,268,1,1,-0.005129940227486668,1.0883383135008218,1.6976342206853006,0.675775543377902,0.24476169526874053,1.0947543382644653,1.0
269,1,269,1,1,2.2670464536492676,1.0883383135008218,1.6976342206853006,0.675775543377902,0.24476169526874053,0.6567599177360535,1.0
270,1,270,1,1,-0.5836313008452292,1.0883383135008218,1.6976342206853006,0.675775543377902,0.24476169526874053,3.191730499267578,1.0
271,1,271,1,1,0.4699335399081948,1.0883383135008218,1.6976342206853006,0.675775543377902,0.24476169526874053,2.0007877349853516,1.0
272,1,272,1,1,-0.24764808697048418,1.0883383135008218,1.6976342206853006,0.675775543377902,0.24476169526874053,1.479763388633728,1.0
273,1,273,1,1,0.8083751338862185,1.0883383135008218,1.6976342206853006,0.675775543377902,0.24476169526874053,0.9857557415962219,1.0
274,1,274,-1,1,-1.6539275733152707,-0.24348392381099887,1.6976342206853006,0.675775543377902,0.24476169526874053,11.51868724822998,0.0
275,1,275,1,1,-0.37102753802925204,1.0883383135008218,1.6976342206853006,0.675775543377902,0.24476169526874053,1.8757818937301636,1.0
276,1,276,-1,1,-0.30849042678312916,-0.24348392381099887,1.6976342206853006,0.675775543377902,0.24476169526874053,5.904533863067627,0.0
277,1,277,-1,1,-1.083803583269897,-0.24348392381099887,1.6976342206853006,0.675775543377902,0.24476169526874053,0.7567586898803711,1.0
278,1,278,1,-1,-0.7538056413962475,1.207149344291717,1.6976342206853006,0.675775543377902,0.24476169526874053,1.1577534675598145,1.0
279,1,279,1,1,0.5272748056154025,1.0883383135008218,1.6976342206853006,0.675775543377902,0.24476169526874053,3.4167141914367676,1.0
280,1,280,-1,1,-0.288462872016743,-0.24348392381099887,1.6976342206853006,0.675775543377902,0.24476169526874053,0.595760703086853,1.0
281,1,281,1,1,-0.08341338338805011,1.0883383135008218,1.6976342206853006,0.675775543377902,0.24476169526874053,5.495563507080078,1.0
282,1,282,-1,-1,-0.6123557801922821,-0.12467289302010381,1.6976342206853006,0.675775543377902,0.24476169526874053,0.8447575569152832,1.0
283,1,283,1,-1,-0.3612863292344661,1.207149344291717,1.6976342206853006,0.675775543377902,0.24476169526874053,1.0457549095153809,1.0
284,1,284,1,1,-2.2532128695786864,1.0883383135008218,1.6976342206853006,0.675775543377902,0.24476169526874053,2.7577619552612305,1.0
285,1,285,-1,-1,-1.671691113733815,-0.12467289302010381,1.6976342206853006,0.675775543377902,0.24476169526874053,3.321721076965332,1.0
286,1,286,-1,-1,-0.20375378282649043,-0.12467289302010381,1.6976342206853006,0.675775543377902,0.24476169526874053,1.3457571268081665,1.0
287,1,287,1,-1,-0.2836977645133447,1.207149344291717,1.6976342206853006,0.675775543377902,0.24476169526874053,0.8137579560279846,1.0
288,1,288,-1,-1,0.7602829753998606,-0.12467289302010381,1.6976342206853006,0.675775543377902,0.24476169526874053,6.974456310272217,1.0
289,1,289,1,1,-1.6262625466824239,1.0883383135008218,1.6976342206853006,0.675775543377902,0.24476169526874053,0.8377576470375061,1.0
290,1,290,-1,-1,1.4895486486890157,-0.12467289302010381,1.6976342206853006,0.675775543377902,0.24476169526874053,0.9187566041946411,1.0
291,1,291,1,-1,-1.4044742760099809,1.207149344291717,1.6976342206853006,0.675775543377902,0.24476169526874053,0.5197616815567017,1.0
292,1,292,-1,-1,-1.285995458579378,-0.12467289302010381,1.6976342206853006,0.675775543377902,0.24476169526874053,4.85161018371582,0.0
293,1,293,1,1,1.109510197732109,1.0883383135008218,1.6976342206853006,0.675775543377902,0.24476169526874053,1.5047645568847656,1.0
294,1,294,-1,1,1.2706510218482971,-0.24348392381099887,1.6976342206853006,0.675775543377902,0.24476169526874053,1.588768482208252,1.0
295,1,295,-1,-1,1.2193652742749108,-0.12467289302010381,1.6976342206853006,0.675775543377902,0.24476169526874053,1.1447536945343018,0.0
296,1,296,-1,-1,0.09559004903694536,-0.12467289302010381,1.6976342206853006,0.675775543377902,0.24476169526874053,3.405714988708496,0.0
297,1,297,1,-1,1.0162262971236364,1.207149344291717,1.6976342206853006,0.675775543377902,0.24476169526874053,0.7787584066390991,1.0
298,1,298,1,-1,1.9073873770168877,1.207149344291717,1.6976342206853006,0.675775543377902,0.24476169526874053,1.0617547035217285,1.0
299,1,299,-1,1,-0.16167543976336846,-0.24348392381099887,1.6976342206853006,0.675775543377902,0.24476169526874053,2.317793846130371,1.0
300,1,300,-1,-1,-0.33964281442002553,-0.12467289302010381,1.6976342206853006,0.675775543377902,0.24476169526874053,3.261725425720215,1.0
301,1,301,1,-1,1.113135454986801,1.207149344291717,1.6976342206853006,0.675775543377902,0.24476169526874053,0.6207603812217712,1.0
302,1,302,1,-1,1.1871951211227634,1.207149344291717,1.6976342206853006,0.675775543377902,0.24476169526874053,1.1787532567977905,1.0
303,1,303,-1,-1,0.6479743309056808,-0.12467289302010381,1.6976342206853006,0.675775543377902,0.24476169526874053,8.3193941116333,0.0
304,1,304,1,1,-0.5075012207094088,1.0883383135008218,1.6976342206853006,0.675775543377902,0.24476169526874053,2.594773769378662,1.0
305,1,305,1,1,0.3416716045477588,1.0883383135008218,1.6976342206853006,0.675775543377902,0.24476169526874053,2.2307984828948975,1.0
306,1,306,1,-1,-0.6847959994714549,1.207149344291717,1.6976342206853006,0.675775543377902,0.24476169526874053,1.3417569398880005,1.0
307,1,307,1,1,0.12438570740225624,1.0883383135008218,1.6976342206853006,0.675775543377902,0.24476169526874053,0.6937594413757324,1.0
308,1,308,1,1,-0.8484364552029324,1.0883383135008218,1.6976342206853006,0.675775543377902,0.24476169526874053,0.7597586512565613,1.0
309,1,309,-1,1,0.3597158739981409,-0.24348392381099887,1.6976342206853006,0.675775543377902,0.24476169526874053,0.8557574152946472,1.0
310,1,310,-1,-1,-0.25635946856886604,-0.12467289302010381,1.6976342206853006,0.675775543377902,0.24476169526874053,0.6607598662376404,1.0
311,1,311,-1,-1,-0.4088592443835923,-0.12467289302010381,1.6976342206853006,0.675775543377902,0.24476169526874053,0.863757312297821,1.0
312,1,312,-1,1,0.7640381722955558,-0.24348392381099887,1.6976342206853006,0.675775543377902,0.24476169526874053,1.8917826414108276,1.0
313,1,313,-1,1,1.838822049441767,-0.24348392381099887,1.6976342206853006,0.675775543377902,0.24476169526874053,3.8286843299865723,0.0
314,1,314,1,1,-1.4995242816164924,1.0883383135008218,1.6976342206853006,0.675775543377902,0.24476169526874053,0.948756217956543,1.0
315,1,315,-1,-1,0.35738079332439954,-0.12467289302010381,1.6976342206853006,0.675775543377902,0.24476169526874053,3.152733325958252,0.0
316,1,316,1,-1,-0.09335898761756922,1.207149344291717,1.6976342206853006,0.675775543377902,0.24476169526874053,1.1147540807724,1.0
317,1,317,1,1,-0.052243032321960384,1.0883383135008218,1.6976342206853006,0.675775543377902,0.24476169526874053,2.5687756538391113,1.0
318,1,318,-1,1,0.07770618045046557,-0.24348392381099887,1.6976342206853006,0.675775543377902,0.24476169526874053,2.5387778282165527,1.0
319,1,319,-1,-1,1.1843959832101574,-0.12467289302010381,1.6976342206853006,0.675775543377902,0.24476169526874053,2.748762607574463,1.0
320,1,320,1,1,-0.027573960692266017,1.0883383135008218,1.6976342206853006,0.675775543377902,0.24476169526874053,2.3767895698547363,1.0
321,1,321,-1,1,-2.4584453271826723,-0.24348392381099887,1.6976342206853006,0.675775543377902,0.24476169526874053,1.97978675365448,0.0
322,1,322,-1,1,-0.6317514540565459,-0.24348392381099887,1.6976342206853006,0.675775543377902,0.24476169526874053,0.8147579431533813,1.0
323,1,323,-1,-1,-0.8969008118134598,-0.12467289302010381,1.6976342206853006,0.675775543377902,0.24476169526874053,0.8347576856613159,1.0
324,1,324,1,1,-1.870714485829084,1.0883383135008218,1.6976342206853006,0.675775543377902,0.24476169526874053,0.573760986328125,1.0
325,1,325,-1,1,-1.4376225529509892,-0.24348392381099887,1.6976342206853006,0.675775543377902,0.24476169526874053,2.7767605781555176,1.0
326,1,326,-1,-1,-1.3444157769391487,-0.12467289302010381,1.6976342206853006,0.675775543377902,0.24476169526874053,1.445761799812317,0.0
327,1,327,-1,1,1.4668602698517506,-0.24348392381099887,1.6976342206853006,0.675775543377902,0.24476169526874053,0.7917582392692566,0.0
328,1,328,1,-1,-0.44570788039084136,1.207149344291717,1.6976342206853006,0.675775543377902,0.24476169526874053,1.4007596969604492,1.0
329,1,329,1,-1,0.872680027548965,1.207149344291717,1.6976342206853006,0.675775543377902,0.24476169526874053,5.3375749588012695,1.0
330,1,330,1,1,0.38016571776423963,1.0883383135008218,1.6976342206853006,0.675775543377902,0.24476169526874053,3.150733470916748,0.0
331,1,331,-1,1,-1.3151222527069895,-0.24348392381099887,1.6976342206853006,0.675775543377902,0.24476169526874053,0.7377588748931885,1.0
332,1,332,-1,1,0.353397798723908,-0.24348392381099887,1.6976342206853006,0.675775543377902,0.24476169526874053,2.0317890644073486,1.0
333,1,333,-1,1,-1.3396238197484218,-0.24348392381099887,1.6976342206853006,0.675775543377902,0.24476169526874053,0.7807583808898926,1.0
334,1,334,-1,1,-0.0893557200315999,-0.24348392381099887,1.6976342206853006,0.675775543377902,0.24476169526874053,0.7617586255073547,0.0
335,1,335,-1,1,0.6538602101609805,-0.24348392381099887,1.6976342206853006,0.675775543377902,0.24476169526874053,6.434495449066162,1.0
336,1,336,-1,-1,-0.2559105515759039,-0.12467289302010381,1.6976342206853006,0.675775543377902,0.24476169526874053,2.574775218963623,0.0
337,1,337,1,1,0.04559315504271422,1.0883383135008218,1.6976342206853006,0.675775543377902,0.24476169526874053,1.8297797441482544,1.0
338,1,338,1,1,-0.48151711000992625,1.0883383135008218,1.6976342206853006,0.675775543377902,0.24476169526874053,1.9017831087112427,1.0
339,1,339,-1,-1,-0.13488579798033595,-0.12467289302010381,1.6976342206853006,0.675775543377902,0.24476169526874053,1.3517574071884155,1.0
340,1,340,-1,1,-0.4250304845053956,-0.24348392381099887,1.6976342206853006,0.675775543377902,0.24476169526874053,8.518474578857422,1.0
341,1,341,-1,1,-0.72292829198723,-0.24348392381099887,1.6976342206853006,0.675775543377902,0.24476169526874053,1.727774977684021,1.0
342,1,342,-1,-1,0.7121217870883689,-0.12467289302010381,1.6976342206853006,0.675775543377902,0.24476169526874053,0.6147604584693909,1.0
343,1,343,1,1,1.0273682516556044,1.0883383135008218,1.6976342206853006,0.675775543377902,0.24476169526874053,1.2447524070739746,1.0
344,1,344,1,1,-0.5402519049906074,1.0883383135008218,1.6976342206853006,0.675775543377902,0.24476169526874053,0.5347614884376526,1.0
345,1,345,-1,1,1.5638807195162168,-0.24348392381099887,1.6976342206853006,0.675775543377902,0.24476169526874053,7.551414489746094,0.0
346,1,346,1,1,0.5952533001191735,1.0883383135008218,1.6976342206853006,0.675775543377902,0.24476169526874053,0.6147604584693909,1.0
347,1,347,1,1,1.7362555348577597,1.0883383135008218,1.6976342206853006,0.675775543377902,0.24476169526874053,1.612769603729248,1.0
348,1,348,1,1,1.68214816389748,1.0883383135008218,1.6976342206853006,0.675775543377902,0.24476169526874053,0.8127579689025879,1.0
349,1,349,-1,1,0.1368966552323757,-0.24348392381099887,1.6976342206853006,0.675775543377902,0.24476169526874053,2.684767246246338,0.0
350,1,350,-1,1,1.3302932069844904,-0.24348392381099887,1.6976342206853006,0.675775543377902,0.24476169526874053,1.459762454032898,0.0
351,1,351,-1,1,0.5814875643824974,-0.24348392381099887,1.6976342206853006,0.675775543377902,0.24476169526874053,2.575775146484375,1.0
352,1,352,-1,1,-1.2833885640580132,-0.24348392381099887,1.6976342206853006,0.675775543377902,0.24476169526874053,0.8237578272819519,1.0
353,1,353,1,-1,-0.13527445133727425,1.207149344291717,1.6976342206853006,0.675775543377902,0.24476169526874053,1.9537855386734009,1.0
354,1,354,-1,1,0.17390912932062444,-0.24348392381099887,1.6976342206853006,0.675775543377902,0.24476169526874053,1.3867590427398682,1.0
355,1,355,-1,1,0.67885983735147,-0.24348392381099887,1.6976342206853006,0.675775543377902,0.24476169526874053,1.368758201599121,0.0
356,1,356,1,1,-1.3825287428981279,1.0883383135008218,1.6976342206853006,0.675775543377902,0.24476169526874053,0.9637560248374939,1.0
357,1,357,1,1,0.38450679346722466,1.0883383135008218,1.6976342206853006,0.675775543377902,0.24476169526874053,1.0507549047470093,1.0
358,1,358,-1,-1,-1.6226172714607539,-0.12467289302010381,1.6976342206853006,0.675775543377902,0.24476169526874053,2.2057971954345703,1.0
359,1,359,-1,-1,-0.19495348511483412,-0.12467289302010381,1.6976342206853006,0.675775543377902,0.24476169526874053,4.391643524169922,1.0
360,1,360,-1,-1,1.2576738887595182,-0.12467289302010381,1.6976342206853006,0.675775543377902,0.24476169526874053,5.4865641593933105,1.0
361,1,361,-1,1,1.3821842641486781,-0.24348392381099887,1.6976342206853006,0.675775543377902,0.24476169526874053,2.3057947158813477,0.0
362,1,362,-1,-1,0.6820583884210766,-0.12467289302010381,1.6976342206853006,0.675775543377902,0.24476169526874053,1.6217700242996216,1.0
363,1,363,1,-1,1.0519479229930069,1.207149344291717,1.6976342206853006,0.675775543377902,0.24476169526874053,1.4367613792419434,1.0
364,1,364,1,-1,1.8975686383431987,1.207149344291717,1.6976342206853006,0.675775543377902,0.24476169526874053,1.6457711458206177,1.0
365,1,365,1,-1,0.05594549486783608,1.207149344291717,1.6976342206853006,0.675775543377902,0.24476169526874053,0.665759801864624,1.0
366,1,366,-1,1,-1.0531667869595511,-0.24348392381099887,1.6976342206853006,0.675775543377902,0.24476169526874053,1.459762454032898,1.0
367,1,367,-1,1,-0.7301527123313577,-0.24348392381099887,1.6976342206853006,0.675775543377902,0.24476169526874053,1.9627859592437744,1.0
368,1,368,-1,1,1.4505136974320703,-0.24348392381099887,1.6976342206853006,0.675775543377902,0.24476169526874053,2.448784351348877,1.0
369,1,369,-1,-1,0.5061791130696028,-0.12467289302010381,1.6976342206853006,0.675775543377902,0.24476169526874053,5.41456937789917,0.0
370,1,370,-1,-1,0.8294993646217969,-0.12467289302010381,1.6976342206853006,0.675775543377902,0.24476169526874053,2.6547694206237793,0.0
371,1,371,-1,-1,-1.0046262484444546,-0.12467289302010381,1.6976342206853006,0.675775543377902,0.24476169526874053,2.810758113861084,1.0
372,1,372,1,-1,0.8967542792371883,1.207149344291717,1.6976342206853006,0.675775543377902,0.24476169526874053,0.6057605743408203,1.0
373,1,373,1,1,0.5717160928643337,1.0883383135008218,1.6976342206853006,0.675775543377902,0.24476169526874053,1.6847729682922363,1.0
374,1,374,1,-1,-0.5434494567668572,1.207149344291717,1.6976342206853006,0.675775543377902,0.24476169526874053,1.626770257949829,1.0
375,1,375,-1,-1,0.4221558772413485,-0.12467289302010381,1.6976342206853006,0.675775543377902,0.24476169526874053,1.0487549304962158,0.0
376,1,376,-1,-1,0.006036487960160472,-0.12467289302010381,1.6976342206853006,0.675775543377902,0.24476169526874053,3.684694766998291,0.0
377,1,377,-1,1,-1.9181027631705143,-0.24348392381099887,1.6976342206853006,0.675775543377902,0.24476169526874053,4.290650844573975,0.0
378,1,378,-1,-1,-0.8103629146502594,-0.12467289302010381,1.6976342206853006,0.675775543377902,0.24476169526874053,5.6345534324646,0.0
379,1,379,1,-1,-0.3010768127709283,1.207149344291717,1.6976342206853006,0.675775543377902,0.24476169526874053,0.643760085105896,1.0
380,1,380,1,1,0.340756778204357,1.0883383135008218,1.6976342206853006,0.675775543377902,0.24476169526874053,0.7047592997550964,1.0
381,1,381,-1,-1,-1.2866245229933473,-0.12467289302010381,1.6976342206853006,0.675775543377902,0.24476169526874053,1.5757678747177124,0.0
382,1,382,-1,-1,-0.5467009927505038,-0.12467289302010381,1.6976342206853006,0.675775543377902,0.24476169526874053,5.778542995452881,1.0
383,1,383,1,-1,1.3353838134930975,1.207149344291717,1.6976342206853006,0.675775543377902,0.24476169526874053,0.9257565140724182,1.0
384,1,384,-1,-1,-0.639579514068536,-0.12467289302010381,1.6976342206853006,0.675775543377902,0.24476169526874053,4.711620330810547,0.0
385,1,385,1,1,-1.3209405758139956,1.0883383135008218,1.6976342206853006,0.675775543377902,0.24476169526874053,2.68576717376709,1.0
386,1,386,-1,1,1.598560101562389,-0.24348392381099887,1.6976342206853006,0.675775543377902,0.24476169526874053,2.828756809234619,1.0
387,1,387,-1,-1,-0.39393000587336746,-0.12467289302010381,1.6976342206853006,0.675775543377902,0.24476169526874053,0.6257603168487549,1.0
388,1,388,1,1,-1.2387577487679473,1.0883383135008218,1.6976342206853006,0.675775543377902,0.24476169526874053,5.709547996520996,1.0
389,1,389,-1,-1,0.214263941717035,-0.12467289302010381,1.6976342206853006,0.675775543377902,0.24476169526874053,0.4207618832588196,1.0
390,1,390,-1,1,-0.7816824988583745,-0.24348392381099887,1.6976342206853006,0.675775543377902,0.24476169526874053,0.5077618360519409,1.0
391,1,391,-1,1,-1.5063013124590816,-0.24348392381099887,1.6976342206853006,0.675775543377902,0.24476169526874053,3.2957229614257812,0.0
392,1,392,1,-1,-0.7980285570574474,1.207149344291717,1.6976342206853006,0.675775543377902,0.24476169526874053,1.0017554759979248,1.0
393,1,393,-1,1,1.194665500554968,-0.24348392381099887,1.6976342206853006,0.675775543377902,0.24476169526874053,2.2397987842559814,0.0
394,1,394,1,-1,1.9637120173249174,1.207149344291717,1.6976342206853006,0.675775543377902,0.24476169526874053,0.6967594027519226,1.0
395,1,395,-1,1,-0.3664230373405993,-0.24348392381099887,1.6976342206853006,0.675775543377902,0.24476169526874053,0.9697559475898743,1.0
396,1,396,1,1,-2.3207056543827362,1.0883383135008218,1.6976342206853006,0.675775543377902,0.24476169526874053,1.366758108139038,1.0
397,1,397,-1,-1,-0.21324074410281202,-0.12467289302010381,1.6976342206853006,0.675775543377902,0.24476169526874053,0.49076199531555176,1.0
398,1,398,1,1,0.6177434999268868,1.0883383135008218,1.6976342206853006,0.675775543377902,0.24476169526874053,3.3807168006896973,1.0
399,1,399,-1,1,0.32238768016064023,-0.24348392381099887,1.6976342206853006,0.675775543377902,0.24476169526874053,0.8027580976486206,1.0
400,1,400,-1,-1,0.44891636431862847,-0.12467289302010381,1.6976342206853006,0.675775543377902,0.24476169526874053,2.7517623901367188,0.0
401,1,401,-1,-1,0.10774037255364348,-0.12467289302010381,1.6976342206853006,0.675775543377902,0.24476169526874053,1.2637532949447632,0.0
402,1,402,-1,-1,-1.1663470229616892,-0.12467289302010381,1.6976342206853006,0.675775543377902,0.24476169526874053,3.384716510772705,0.0
403,1,403,-1,-1,-0.8505159393652962,-0.12467289302010381,1.6976342206853006,0.675775543377902,0.24476169526874053,0.6737596988677979,1.0
404,1,404,-1,1,1.4681703828785766,-0.24348392381099887,1.6976342206853006,0.675775543377902,0.24476169526874053,2.097792148590088,0.0
405,1,405,-1,-1,-0.6634212486293849,-0.12467289302010381,1.6976342206853006,0.675775543377902,0.24476169526874053,2.4777822494506836,0.0
406,1,406,1,-1,-0.9189476058939334,1.207149344291717,1.6976342206853006,0.675775543377902,0.24476169526874053,0.9507561922073364,1.0
407,1,407,1,1,1.2194873916752311,1.0883383135008218,1.6976342206853006,0.675775543377902,0.24476169526874053,1.037755012512207,1.0
408,1,408,1,-1,0.7537727043235254,1.207149344291717,1.6976342206853006,0.675775543377902,0.24476169526874053,0.922756552696228,1.0
409,1,409,-1,1,0.23268578032232318,-0.24348392381099887,1.6976342206853006,0.675775543377902,0.24476169526874053,0.7017593383789062,1.0
410,1,410,-1,1,2.7827981666407178,-0.24348392381099887,1.6976342206853006,0.675775543377902,0.24476169526874053,4.475637435913086,1.0
411,1,411,-1,1,-0.5281837687662523,-0.24348392381099887,1.6976342206853006,0.675775543377902,0.24476169526874053,4.801613807678223,1.0
412,1,412,-1,1,1.7329502444554228,-0.24348392381099887,1.6976342206853006,0.675775543377902,0.24476169526874053,2.5237789154052734,0.0
413,1,413,1,-1,0.355653811059887,1.207149344291717,1.6976342206853006,0.675775543377902,0.24476169526874053,2.3287930488586426,1.0
414,1,414,-1,1,0.7110750746748954,-0.24348392381099887,1.6976342206853006,0.675775543377902,0.24476169526874053,4.009671211242676,1.0
415,1,415,1,-1,-1.926265567582645,1.207149344291717,1.6976342206853006,0.675775543377902,0.24476169526874053,1.7467758655548096,1.0
416,1,416,1,-1,-0.6710988776911034,1.207149344291717,1.6976342206853006,0.675775543377902,0.24476169526874053,1.0347551107406616,1.0
417,1,417,-1,-1,-0.29104043464658347,-0.12467289302010381,1.6976342206853006,0.675775543377902,0.24476169526874053,1.0087554454803467,1.0
418,1,418,1,-1,-0.41570326491803006,1.207149344291717,1.6976342206853006,0.675775543377902,0.24476169526874053,0.6317602396011353,1.0
419,1,419,-1,1,-1.0959807115279638,-0.24348392381099887,1.6976342206853006,0.675775543377902,0.24476169526874053,6.486491680145264,1.0
420,1,420,1,-1,-1.3858627657923335,1.207149344291717,1.6976342206853006,0.675775543377902,0.24476169526874053,0.5807608962059021,1.0
421,1,421,-1,-1,-1.988304911837892,-0.12467289302010381,1.6976342206853006,0.675775543377902,0.24476169526874053,1.7707769870758057,0.0
422,1,422,-1,-1,-0.3049242303869918,-0.12467289302010381,1.6976342206853006,0.675775543377902,0.24476169526874053,2.9247498512268066,0.0
423,1,423,1,-1,0.23353985617703854,1.207149344291717,1.6976342206853006,0.675775543377902,0.24476169526874053,1.2387524843215942,1.0
424,1,424,1,-1,1.458393586572964,1.207149344291717,1.6976342206853006,0.675775543377902,0.24476169526874053,1.2527527809143066,1.0
425,1,425,1,-1,1.3407101882570858,1.207149344291717,1.6976342206853006,0.675775543377902,0.24476169526874053,0.5047618746757507,1.0
426,1,426,-1,-1,-0.3610385484617043,-0.12467289302010381,1.6976342206853006,0.675775543377902,0.24476169526874053,0.9027568101882935,1.0
427,1,427,-1,-1,0.3618330215181633,-0.12467289302010381,1.6976342206853006,0.675775543377902,0.24476169526874053,0.551761269569397,1.0
428,1,428,-1,-1,0.27716843747080316,-0.12467289302010381,1.6976342206853006,0.675775543377902,0.24476169526874053,1.2557529211044312,1.0
429,1,429,-1,1,1.4271049564234437,-0.24348392381099887,1.6976342206853006,0.675775543377902,0.24476169526874053,0.6397601366043091,1.0
430,1,430,1,1,-0.46544171482113816,1.0883383135008218,1.6976342206853006,0.675775543377902,0.24476169526874053,2.832756519317627,1.0
431,1,431,-1,1,-1.7794349461503194,-0.24348392381099887,1.6976342206853006,0.675775543377902,0.24476169526874053,2.130793809890747,1.0
432,1,432,-1,-1,0.1695586387638564,-0.12467289302010381,1.6976342206853006,0.675775543377902,0.24476169526874053,0.9837557673454285,1.0
433,1,433,-1,1,1.1848581570176946,-0.24348392381099887,1.6976342206853006,0.675775543377902,0.24476169526874053,1.1257538795471191,1.0
434,1,434,1,1,-1.167958006526901,1.0883383135008218,1.6976342206853006,0.675775543377902,0.24476169526874053,0.665759801864624,1.0
435,1,435,1,1,-0.685148475487269,1.0883383135008218,1.6976342206853006,0.675775543377902,0.24476169526874053,0.8617573380470276,1.0
436,1,436,1,-1,-1.1868409870145544,1.207149344291717,1.6976342206853006,0.675775543377902,0.24476169526874053,0.5717610120773315,1.0
437,1,437,-1,1,-0.155451908513706,-0.24348392381099887,1.6976342206853006,0.675775543377902,0.24476169526874053,4.118663311004639,0.0
438,1,438,1,-1,0.16288190698945493,1.207149344291717,1.6976342206853006,0.675775543377902,0.24476169526874053,0.7037593126296997,1.0
439,1,439,1,-1,0.6146159831364131,1.207149344291717,1.6976342206853006,0.675775543377902,0.24476169526874053,0.5577611923217773,1.0
440,1,440,1,1,0.5055426918534944,1.0883383135008218,1.6976342206853006,0.675775543377902,0.24476169526874053,0.8807570934295654,1.0
441,1,441,1,1,1.485838101413516,1.0883383135008218,1.6976342206853006,0.675775543377902,0.24476169526874053,0.5177617073059082,1.0
442,1,442,1,1,1.5820915658100279,1.0883383135008218,1.6976342206853006,0.675775543377902,0.24476169526874053,1.180753231048584,1.0
443,1,443,-1,1,0.34473442437094726,-0.24348392381099887,1.6976342206853006,0.675775543377902,0.24476169526874053,0.3287616968154907,1.0
444,1,444,1,-1,0.3063464023331665,1.207149344291717,1.6976342206853006,0.675775543377902,0.24476169526874053,2.2617979049682617,1.0
445,1,445,-1,-1,-0.11680409722151516,-0.12467289302010381,1.6976342206853006,0.675775543377902,0.24476169526874053,4.127662658691406,1.0
446,1,446,1,1,0.5546331485050235,1.0883383135008218,1.6976342206853006,0.675775543377902,0.24476169526874053,0.5397614240646362,1.0
447,1,447,1,-1,0.2969874940422503,1.207149344291717,1.6976342206853006,0.675775543377902,0.24476169526874053,0.6517599821090698,1.0
448,1,448,1,-1,-0.3358614515318047,1.207149344291717,1.6976342206853006,0.675775543377902,0.24476169526874053,1.735775351524353,1.0
449,1,449,1,1,0.4748273633006975,1.0883383135008218,1.6976342206853006,0.675775543377902,0.24476169526874053,2.0517899990081787,1.0
450,1,450,1,1,-0.09892680594476204,1.0883383135008218,1.6976342206853006,0.675775543377902,0.24476169526874053,1.6617718935012817,1.0
451,1,451,-1,-1,0.05779592623126199,-0.12467289302010381,1.6976342206853006,0.675775543377902,0.24476169526874053,5.643552780151367,0.0
452,1,452,-1,1,2.5809577477492196,-0.24348392381099887,1.6976342206853006,0.675775543377902,0.24476169526874053,1.176753282546997,1.0
453,1,453,-1,1,-0.009385146181008247,-0.24348392381099887,1.6976342206853006,0.675775543377902,0.24476169526874053,0.9807558059692383,1.0
454,1,454,1,-1,-1.2581510670396945,1.207149344291717,1.6976342206853006,0.675775543377902,0.24476169526874053,0.5107617974281311,1.0
455,1,455,1,1,0.36047371376689047,1.0883383135008218,1.6976342206853006,0.675775543377902,0.24476169526874053,0.39176180958747864,1.0
456,1,456,1,1,1.1108343868599704,1.0883383135008218,1.6976342206853006,0.675775543377902,0.24476169526874053,0.7297589778900146,1.0
457,1,457,-1,-1,-0.35496925579591604,-0.12467289302010381,1.6976342206853006,0.675775543377902,0.24476169526874053,0.6897594928741455,0.0
458,1,458,-1,-1,-1.0307163105868085,-0.12467289302010381,1.6976342206853006,0.675775543377902,0.24476169526874053,2.2927956581115723,1.0
459,1,459,1,-1,-0.37963404781386084,1.207149344291717,1.6976342206853006,0.675775543377902,0.24476169526874053,1.4067599773406982,1.0
460,1,460,1,-1,0.8875280196915621,1.207149344291717,1.6976342206853006,0.675775543377902,0.24476169526874053,1.202752947807312,1.0
461,1,461,1,-1,-0.981747616338364,1.207149344291717,1.6976342206853006,0.675775543377902,0.24476169526874053,0.5167617201805115,1.0
462,1,462,1,-1,-0.575228479005658,1.207149344291717,1.6976342206853006,0.675775543377902,0.24476169526874053,0.47376197576522827,1.0
463,1,463,-1,-1,0.49462222386506716,-0.12467289302010381,1.6976342206853006,0.675775543377902,0.24476169526874053,2.3567910194396973,0.0
464,1,464,-1,1,1.0718732136967388,-0.24348392381099887,1.6976342206853006,0.675775543377902,0.24476169526874053,4.647624969482422,0.0
465,1,465,1,1,0.35765027211515016,1.0883383135008218,1.6976342206853006,0.675775543377902,0.24476169526874053,2.6927666664123535,1.0
466,1,466,1,-1,-1.1060406153869247,1.207149344291717,1.6976342206853006,0.675775543377902,0.24476169526874053,0.4707619547843933,1.0
467,1,467,-1,1,-0.5431777824183628,-0.24348392381099887,1.6976342206853006,0.675775543377902,0.24476169526874053,2.169795513153076,0.0
468,1,468,1,1,0.4467334179133059,1.0883383135008218,1.6976342206853006,0.675775543377902,0.24476169526874053,1.4017597436904907,1.0
469,1,469,-1,1,0.7941785440772072,-0.24348392381099887,1.6976342206853006,0.675775543377902,0.24476169526874053,1.4297610521316528,1.0
470,1,470,-1,-1,-1.5976309457244133,-0.12467289302010381,1.6976342206853006,0.675775543377902,0.24476169526874053,0.7167591452598572,1.0
471,1,471,1,1,0.7228072062941318,1.0883383135008218,1.6976342206853006,0.675775543377902,0.24476169526874053,0.7127591967582703,1.0
472,1,472,-1,-1,2.3228194749718654,-0.12467289302010381,1.6976342206853006,0.675775543377902,0.24476169526874053,1.981786847114563,1.0
473,1,473,-1,-1,-0.008679481908941855,-0.12467289302010381,1.6976342206853006,0.675775543377902,0.24476169526874053,1.0357550382614136,1.0
474,1,474,-1,-1,0.615408055891137,-0.12467289302010381,1.6976342206853006,0.675775543377902,0.24476169526874053,1.0277551412582397,1.0
475,1,475,-1,-1,0.3689375648668135,-0.12467289302010381,1.6976342206853006,0.675775543377902,0.24476169526874053,2.835756301879883,1.0
476,1,476,-1,-1,-0.11494723315323141,-0.12467289302010381,1.6976342206853006,0.675775543377902,0.24476169526874053,2.160795211791992,1.0
477,1,477,-1,-1,-1.8174135904325723,-0.12467289302010381,1.6976342206853006,0.675775543377902,0.24476169526874053,1.8497806787490845,1.0
478,1,478,-1,1,-0.3795344555272397,-0.24348392381099887,1.6976342206853006,0.675775543377902,0.24476169526874053,2.2307984828948975,0.0
479,1,479,-1,1,0.02906089867444897,-0.24348392381099887,1.6976342206853006,0.675775543377902,0.24476169526874053,3.788687229156494,1.0
480,1,480,-1,-1,-0.03141532728217164,-0.12467289302010381,1.6976342206853006,0.675775543377902,0.24476169526874053,3.3367199897766113,0.0
481,1,481,-1,1,1.0277080384174142,-0.24348392381099887,1.6976342206853006,0.675775543377902,0.24476169526874053,2.706765651702881,1.0
482,1,482,-1,-1,-1.2082879374161017,-0.12467289302010381,1.6976342206853006,0.675775543377902,0.24476169526874053,0.5077618360519409,1.0
483,1,483,-1,1,1.3879667780299443,-0.24348392381099887,1.6976342206853006,0.675775543377902,0.24476169526874053,1.5217653512954712,0.0
484,1,484,1,-1,-1.1802202393862506,1.207149344291717,1.6976342206853006,0.675775543377902,0.24476169526874053,1.3867590427398682,1.0
485,1,485,1,1,-1.4252057240141554,1.0883383135008218,1.6976342206853006,0.675775543377902,0.24476169526874053,0.9687559604644775,1.0
486,1,486,-1,-1,-0.10528681563763898,-0.12467289302010381,1.6976342206853006,0.675775543377902,0.24476169526874053,1.471763014793396,1.0
487,1,487,-1,1,-0.20871815063880111,-0.24348392381099887,1.6976342206853006,0.675775543377902,0.24476169526874053,2.6117725372314453,0.0
488,1,488,-1,-1,-1.0446984832653634,-0.12467289302010381,1.6976342206853006,0.675775543377902,0.24476169526874053,3.4187140464782715,0.0
489,1,489,1,-1,0.300168402299967,1.207149344291717,1.6976342206853006,0.675775543377902,0.24476169526874053,0.9557561278343201,1.0
490,1,490,1,1,-0.4302179461132676,1.0883383135008218,1.6976342206853006,0.675775543377902,0.24476169526874053,0.4207618832588196,1.0
491,1,491,1,1,-0.8842578762371025,1.0883383135008218,1.6976342206853006,0.675775543377902,0.24476169526874053,0.6987593770027161,1.0
492,1,492,1,-1,-0.3541678635389055,1.207149344291717,1.6976342206853006,0.675775543377902,0.24476169526874053,1.081754446029663,1.0
493,1,493,1,1,-0.37091916827210836,1.0883383135008218,1.6976342206853006,0.675775543377902,0.24476169526874053,1.6537715196609497,1.0
494,1,494,-1,1,-0.08907302690527978,-0.24348392381099887,1.6976342206853006,0.675775543377902,0.24476169526874053,2.0407896041870117,0.0
495,1,495,1,-1,-1.1406918607648702,1.207149344291717,1.6976342206853006,0.675775543377902,0.24476169526874053,2.179795980453491,1.0
496,1,496,1,-1,-0.5271964951103273,1.207149344291717,1.6976342206853006,0.675775543377902,0.24476169526874053,0.5217616558074951,1.0
497,1,497,-1,1,0.2260398024712877,-0.24348392381099887,1.6976342206853006,0.675775543377902,0.24476169526874053,4.217656135559082,1.0
498,1,498,1,1,-0.538282333746038,1.0883383135008218,1.6976342206853006,0.675775543377902,0.24476169526874053,2.828756809234619,1.0
499,1,499,-1,-1,0.8360806871536061,-0.12467289302010381,1.6976342206853006,0.675775543377902,0.24476169526874053,1.0917543172836304,1.0
500,1,500,-1,1,0.14921072031029017,-0.24348392381099887,1.6976342206853006,0.675775543377902,0.24476169526874053,0.49276202917099,1.0
501,1,501,-1,-1,0.08553410324412698,-0.12467289302010381,1.6976342206853006,0.675775543377902,0.24476169526874053,6.851465225219727,0.0
502,1,502,-1,-1,-0.17814527500689786,-0.12467289302010381,1.6976342206853006,0.675775543377902,0.24476169526874053,2.577775001525879,1.0
503,1,503,1,1,-0.27048165712026195,1.0883383135008218,1.6976342206853006,0.675775543377902,0.24476169526874053,0.5277615785598755,1.0
504,1,504,-1,1,2.65782917300404,-0.24348392381099887,1.6976342206853006,0.675775543377902,0.24476169526874053,2.999744415283203,0.0
505,1,505,1,-1,0.06476760846879427,1.207149344291717,1.6976342206853006,0.675775543377902,0.24476169526874053,2.536777973175049,1.0
506,1,506,-1,-1,-0.5009913294378854,-0.12467289302010381,1.6976342206853006,0.675775543377902,0.24476169526874053,1.1537535190582275,1.0
507,1,507,1,-1,0.7137823709264548,1.207149344291717,1.6976342206853006,0.675775543377902,0.24476169526874053,1.0747545957565308,1.0
508,1,508,1,-1,-0.3669105246325381,1.207149344291717,1.6976342206853006,0.675775543377902,0.24476169526874053,0.6757596731185913,1.0
509,1,509,1,-1,0.4168998592209793,1.207149344291717,1.6976342206853006,0.675775543377902,0.24476169526874053,2.0657906532287598,1.0
510,1,510,-1,-1,-1.637114199131575,-0.12467289302010381,1.6976342206853006,0.675775543377902,0.24476169526874053,0.5537612438201904,1.0
511,1,511,1,-1,-1.1263208646876681,1.207149344291717,1.6976342206853006,0.675775543377902,0.24476169526874053,0.9747558832168579,1.0
512,1,512,-1,-1,-1.6764962784844069,-0.12467289302010381,1.6976342206853006,0.675775543377902,0.24476169526874053,4.650624752044678,1.0
513,1,513,-1,-1,0.5309841186709201,-0.12467289302010381,1.6976342206853006,0.675775543377902,0.24476169526874053,6.736473560333252,0.0
514,1,514,1,-1,-0.024415965024627354,1.207149344291717,1.6976342206853006,0.675775543377902,0.24476169526874053,0.7367588877677917,1.0
515,1,515,-1,-1,-2.193121873817738,-0.12467289302010381,1.6976342206853006,0.675775543377902,0.24476169526874053,2.3517913818359375,1.0
516,1,516,-1,1,0.7421619464016879,-0.24348392381099887,1.6976342206853006,0.675775543377902,0.24476169526874053,0.6387601494789124,1.0
517,1,517,1,1,0.7379816690714471,1.0883383135008218,1.6976342206853006,0.675775543377902,0.24476169526874053,2.7317638397216797,1.0
518,1,518,-1,-1,-1.0209511581219612,-0.12467289302010381,1.6976342206853006,0.675775543377902,0.24476169526874053,9.14972972869873,0.0
519,1,519,-1,-1,0.6383137154746036,-0.12467289302010381,1.6976342206853006,0.675775543377902,0.24476169526874053,3.7166924476623535,1.0
520,1,520,-1,-1,-1.3064330994469278,-0.12467289302010381,1.6976342206853006,0.675775543377902,0.24476169526874053,2.536777973175049,0.0
521,1,521,1,-1,0.2506583151082074,1.207149344291717,1.6976342206853006,0.675775543377902,0.24476169526874053,0.7837583422660828,1.0
522,1,522,-1,1,-0.6348399873742772,-0.24348392381099887,1.6976342206853006,0.675775543377902,0.24476169526874053,7.4084248542785645,0.0
523,1,523,1,1,0.26837367216194313,1.0883383135008218,1.6976342206853006,0.675775543377902,0.24476169526874053,0.8137579560279846,1.0
524,1,524,1,1,1.1685244736163578,1.0883383135008218,1.6976342206853006,0.675775543377902,0.24476169526874053,1.2107528448104858,1.0
525,1,525,1,-1,-0.8608317276673264,1.207149344291717,1.6976342206853006,0.675775543377902,0.24476169526874053,1.1697533130645752,1.0
526,1,526,-1,-1,0.7998859160748356,-0.12467289302010381,1.6976342206853006,0.675775543377902,0.24476169526874053,3.939676284790039,1.0
527,1,527,1,-1,-1.0559676036960068,1.207149344291717,1.6976342206853006,0.675775543377902,0.24476169526874053,0.4837619960308075,1.0
528,1,528,-1,-1,0.8076421592447078,-0.12467289302010381,1.6976342206853006,0.675775543377902,0.24476169526874053,2.956747531890869,1.0
529,1,529,1,1,-0.49280826096624886,1.0883383135008218,1.6976342206853006,0.675775543377902,0.24476169526874053,4.010671138763428,1.0
530,1,530,1,-1,2.2396738784174137,1.207149344291717,1.6976342206853006,0.675775543377902,0.24476169526874053,0.4787619709968567,1.0
531,1,531,-1,1,1.212786075866983,-0.24348392381099887,1.6976342206853006,0.675775543377902,0.24476169526874053,2.3057947158813477,1.0
532,1,532,1,-1,-0.177798187230589,1.207149344291717,1.6976342206853006,0.675775543377902,0.24476169526874053,1.4047598838806152,1.0
533,1,533,-1,-1,-0.7317427986395617,-0.12467289302010381,1.6976342206853006,0.675775543377902,0.24476169526874053,2.6127724647521973,0.0
534,1,534,-1,-1,1.5588485537875052,-0.12467289302010381,1.6976342206853006,0.675775543377902,0.24476169526874053,2.660768985748291,0.0
535,1,535,-1,-1,0.12841449647340009,-0.12467289302010381,1.6976342206853006,0.675775543377902,0.24476169526874053,2.0637905597686768,0.0
536,1,536,1,1,-0.1065784335216043,1.0883383135008218,1.6976342206853006,0.675775543377902,0.24476169526874053,0.3957618176937103,1.0
537,1,537,1,-1,0.3143511584176273,1.207149344291717,1.6976342206853006,0.675775543377902,0.24476169526874053,2.750762462615967,1.0
538,1,538,1,1,0.43361417776094013,1.0883383135008218,1.6976342206853006,0.675775543377902,0.24476169526874053,1.1787532567977905,1.0
539,1,539,-1,1,1.3096928053099393,-0.24348392381099887,1.6976342206853006,0.675775543377902,0.24476169526874053,3.149733543395996,0.0
540,1,540,1,1,-0.1878178615430115,1.0883383135008218,1.6976342206853006,0.675775543377902,0.24476169526874053,1.2457524538040161,1.0
541,1,541,-1,1,-1.3790182353993958,-0.24348392381099887,1.6976342206853006,0.675775543377902,0.24476169526874053,1.1097540855407715,1.0
542,1,542,1,1,-1.0225966423145096,1.0883383135008218,1.6976342206853006,0.675775543377902,0.24476169526874053,1.2167527675628662,1.0
543,1,543,-1,1,1.6335195494586343,-0.24348392381099887,1.6976342206853006,0.675775543377902,0.24476169526874053,6.758471965789795,1.0
544,1,544,1,-1,0.7882436152591646,1.207149344291717,1.6976342206853006,0.675775543377902,0.24476169526874053,0.5857608318328857,1.0
545,1,545,-1,-1,0.1821345062969289,-0.12467289302010381,1.6976342206853006,0.675775543377902,0.24476169526874053,2.8387560844421387,1.0
546,1,546,1,-1,0.2082917076010326,1.207149344291717,1.6976342206853006,0.675775543377902,0.24476169526874053,0.8027580976486206,1.0
547,1,547,1,1,1.976749670711983,1.0883383135008218,1.6976342206853006,0.675775543377902,0.24476169526874053,4.073666572570801,1.0
548,1,548,-1,1,-0.1888746600701165,-0.24348392381099887,1.6976342206853006,0.675775543377902,0.24476169526874053,1.3807587623596191,0.0
549,1,549,-1,1,0.6034343943083103,-0.24348392381099887,1.6976342206853006,0.675775543377902,0.24476169526874053,1.5757678747177124,0.0
550,1,550,1,-1,0.9578350133111331,1.207149344291717,1.6976342206853006,0.675775543377902,0.24476169526874053,1.0057554244995117,1.0
551,1,551,-1,1,0.8744683783497077,-0.24348392381099887,1.6976342206853006,0.675775543377902,0.24476169526874053,1.6617718935012817,0.0
552,1,552,1,-1,0.2181016480193157,1.207149344291717,1.6976342206853006,0.675775543377902,0.24476169526874053,0.49076199531555176,1.0
553,1,553,1,1,-1.9168543139789638,1.0883383135008218,1.6976342206853006,0.675775543377902,0.24476169526874053,3.48970890045166,1.0
554,1,554,-1,-1,-1.21929709535896,-0.12467289302010381,1.6976342206853006,0.675775543377902,0.24476169526874053,1.848780632019043,1.0
555,1,555,-1,1,0.37562272280656994,-0.24348392381099887,1.6976342206853006,0.675775543377902,0.24476169526874053,2.8887524604797363,0.0
556,1,556,1,-1,0.502500710690027,1.207149344291717,1.6976342206853006,0.675775543377902,0.24476169526874053,1.8027784824371338,1.0
557,1,557,1,1,1.3623619085505643,1.0883383135008218,1.6976342206853006,0.675775543377902,0.24476169526874053,0.46776196360588074,1.0
558,1,558,1,1,0.23890623038606218,1.0883383135008218,1.6976342206853006,0.675775543377902,0.24476169526874053,1.9627859592437744,1.0
559,1,559,-1,1,0.06639595805940948,-0.24348392381099887,1.6976342206853006,0.675775543377902,0.24476169526874053,0.8797571063041687,1.0
560,1,560,1,1,0.4005282245412023,1.0883383135008218,1.6976342206853006,0.675775543377902,0.24476169526874053,0.46276193857192993,1.0
561,1,561,-1,1,-0.30789005125486246,-0.24348392381099887,1.6976342206853006,0.675775543377902,0.24476169526874053,1.6367707252502441,1.0
562,1,562,1,-1,0.6762386375674687,1.207149344291717,1.6976342206853006,0.675775543377902,0.24476169526874053,0.922756552696228,1.0
563,1,563,-1,1,1.3008064878013454,-0.24348392381099887,1.6976342206853006,0.675775543377902,0.24476169526874053,2.494781017303467,0.0
564,1,564,1,-1,-1.496346007794612,1.207149344291717,1.6976342206853006,0.675775543377902,0.24476169526874053,1.715774416923523,1.0
565,1,565,-1,-1,0.8605638117474214,-0.12467289302010381,1.6976342206853006,0.675775543377902,0.24476169526874053,1.6477712392807007,1.0
566,1,566,-1,-1,-1.6480833981769343,-0.12467289302010381,1.6976342206853006,0.675775543377902,0.24476169526874053,1.985787034034729,0.0
567,1,567,1,-1,-0.8093757724856068,1.207149344291717,1.6976342206853006,0.675775543377902,0.24476169526874053,0.6077605485916138,1.0
568,1,568,-1,-1,1.3422233769548773,-0.12467289302010381,1.6976342206853006,0.675775543377902,0.24476169526874053,3.445712089538574,1.0
569,1,569,1,-1,-0.019944264940589776,1.207149344291717,1.6976342206853006,0.675775543377902,0.24476169526874053,1.2387524843215942,1.0
570,1,570,1,1,0.21905059935221577,1.0883383135008218,1.6976342206853006,0.675775543377902,0.24476169526874053,0.8467575311660767,1.0
571,1,571,1,-1,0.7184543066943025,1.207149344291717,1.6976342206853006,0.675775543377902,0.24476169526874053,0.6777596473693848,1.0
572,1,572,1,1,0.41272945032144615,1.0883383135008218,1.6976342206853006,0.675775543377902,0.24476169526874053,1.586768388748169,1.0
573,1,573,1,1,0.9989821839371404,1.0883383135008218,1.6976342206853006,0.675775543377902,0.24476169526874053,0.7727584838867188,1.0
574,1,574,1,-1,-0.44789535423488813,1.207149344291717,1.6976342206853006,0.675775543377902,0.24476169526874053,1.7407755851745605,1.0
575,1,575,1,-1,2.2483659353837466,1.207149344291717,1.6976342206853006,0.675775543377902,0.24476169526874053,0.8267577886581421,1.0
576,1,576,1,-1,0.5126393036792578,1.207149344291717,1.6976342206853006,0.675775543377902,0.24476169526874053,0.9427562952041626,1.0
577,1,577,1,1,0.33594692304196205,1.0883383135008218,1.6976342206853006,0.675775543377902,0.24476169526874053,1.1607534885406494,1.0
578,1,578,1,-1,0.9329162836493843,1.207149344291717,1.6976342206853006,0.675775543377902,0.24476169526874053,0.562761127948761,1.0
579,1,579,1,1,1.0179077843363613,1.0883383135008218,1.6976342206853006,0.675775543377902,0.24476169526874053,0.5107617974281311,1.0
580,1,580,1,1,-1.2017967017624152,1.0883383135008218,1.6976342206853006,0.675775543377902,0.24476169526874053,0.5337615013122559,1.0
581,1,581,1,-1,-0.602727064335624,1.207149344291717,1.6976342206853006,0.675775543377902,0.24476169526874053,2.3317928314208984,1.0
582,1,582,1,-1,1.6504879299232205,1.207149344291717,1.6976342206853006,0.675775543377902,0.24476169526874053,0.5117617845535278,1.0
583,1,583,1,1,0.6660441774977954,1.0883383135008218,1.6976342206853006,0.675775543377902,0.24476169526874053,1.6447710990905762,1.0
584,1,584,1,1,0.7176689733491853,1.0883383135008218,1.6976342206853006,0.675775543377902,0.24476169526874053,0.5817608833312988,1.0
585,1,585,-1,1,0.24990307993666083,-0.24348392381099887,1.6976342206853006,0.675775543377902,0.24476169526874053,6.43349552154541,0.0
586,1,586,1,1,-0.6773228173835142,1.0883383135008218,1.6976342206853006,0.675775543377902,0.24476169526874053,1.0687546730041504,1.0
587,1,587,-1,-1,0.9847776167022022,-0.12467289302010381,1.6976342206853006,0.675775543377902,0.24476169526874053,2.42978572845459,0.0
588,1,588,-1,-1,-0.37417646460192494,-0.12467289302010381,1.6976342206853006,0.675775543377902,0.24476169526874053,0.6907594799995422,1.0
589,1,589,-1,-1,1.4775960265095396,-0.12467289302010381,1.6976342206853006,0.675775543377902,0.24476169526874053,2.68576717376709,1.0
590,1,590,-1,-1,-0.9366007413897165,-0.12467289302010381,1.6976342206853006,0.675775543377902,0.24476169526874053,0.5307615399360657,1.0
591,1,591,-1,-1,-0.28792273558953746,-0.12467289302010381,1.6976342206853006,0.675775543377902,0.24476169526874053,1.8007783889770508,1.0
592,1,592,-1,-1,-1.0460043417751235,-0.12467289302010381,1.6976342206853006,0.675775543377902,0.24476169526874053,1.6297703981399536,1.0
593,1,593,1,-1,-0.731893613896273,1.207149344291717,1.6976342206853006,0.675775543377902,0.24476169526874053,2.0537900924682617,1.0
594,1,594,1,1,-1.0428167908515988,1.0883383135008218,1.6976342206853006,0.675775543377902,0.24476169526874053,2.2477989196777344,1.0
595,1,595,-1,-1,0.4850895665096113,-0.12467289302010381,1.6976342206853006,0.675775543377902,0.24476169526874053,2.4967808723449707,1.0
596,1,596,1,-1,-0.9459958553882591,1.207149344291717,1.6976342206853006,0.675775543377902,0.24476169526874053,2.336792469024658,1.0
597,1,597,1,-1,-0.5270715513370238,1.207149344291717,1.6976342206853006,0.675775543377902,0.24476169526874053,0.9527561664581299,1.0
598,1,598,-1,-1,-1.2722581654078955,-0.12467289302010381,1.6976342206853006,0.675775543377902,0.24476169526874053,3.1417341232299805,1.0
599,1,599,-1,-1,0.7313701430372399,-0.12467289302010381,1.6976342206853006,0.675775543377902,0.24476169526874053,2.2417988777160645,1.0
600,1,600,1,-1,0.48364084819944897,1.207149344291717,1.6976342206853006,0.675775543377902,0.24476169526874053,1.1307538747787476,1.0
601,1,601,1,-1,1.3355506426425516,1.207149344291717,1.6976342206853006,0.675775543377902,0.24476169526874053,0.7207590937614441,1.0
602,1,602,1,-1,1.1342431961913941,1.207149344291717,1.6976342206853006,0.675775543377902,0.24476169526874053,0.7557587027549744,1.0
603,1,603,-1,1,-2.2261107636358135,-0.24348392381099887,1.6976342206853006,0.675775543377902,0.24476169526874053,2.42478609085083,0.0
604,1,604,1,-1,-2.459080098655587,1.207149344291717,1.6976342206853006,0.675775543377902,0.24476169526874053,0.9247565269470215,1.0
605,1,605,1,-1,-0.4640493870636056,1.207149344291717,1.6976342206853006,0.675775543377902,0.24476169526874053,2.2147977352142334,1.0
606,1,606,-1,1,1.6309115676491723,-0.24348392381099887,1.6976342206853006,0.675775543377902,0.24476169526874053,6.1285176277160645,0.0
607,1,607,1,-1,-1.5934625598705758,1.207149344291717,1.6976342206853006,0.675775543377902,0.24476169526874053,0.8717572093009949,1.0
608,1,608,-1,1,2.221268452085492,-0.24348392381099887,1.6976342206853006,0.675775543377902,0.24476169526874053,1.0957542657852173,0.0
609,1,609,1,-1,0.13089006181527701,1.207149344291717,1.6976342206853006,0.675775543377902,0.24476169526874053,2.747762680053711,1.0
610,1,610,1,1,-0.1757421086785279,1.0883383135008218,1.6976342206853006,0.675775543377902,0.24476169526874053,2.2677974700927734,1.0
611,1,611,1,-1,-0.22546534161724835,1.207149344291717,1.6976342206853006,0.675775543377902,0.24476169526874053,0.5267615914344788,1.0
612,1,612,1,1,1.1263830431378061,1.0883383135008218,1.6976342206853006,0.675775543377902,0.24476169526874053,1.0057554244995117,1.0
613,1,613,1,1,1.4627947873455633,1.0883383135008218,1.6976342206853006,0.675775543377902,0.24476169526874053,0.933756411075592,1.0
614,1,614,1,1,-0.11817310812446431,1.0883383135008218,1.6976342206853006,0.675775543377902,0.24476169526874053,1.1527535915374756,1.0
615,1,615,1,-1,-0.4849351487522554,1.207149344291717,1.6976342206853006,0.675775543377902,0.24476169526874053,4.1866583824157715,1.0
616,1,616,1,1,-1.3101636587043741,1.0883383135008218,1.6976342206853006,0.675775543377902,0.24476169526874053,0.632760226726532,1.0
617,1,617,-1,1,0.977933545092548,-0.24348392381099887,1.6976342206853006,0.675775543377902,0.24476169526874053,2.59877347946167,0.0
618,1,618,1,-1,-1.130477456848146,1.207149344291717,1.6976342206853006,0.675775543377902,0.24476169526874053,1.6687722206115723,1.0
619,1,619,1,-1,-0.8480806613573967,1.207149344291717,1.6976342206853006,0.675775543377902,0.24476169526874053,1.5437663793563843,1.0
620,1,620,-1,1,-1.497685290143052,-0.24348392381099887,1.6976342206853006,0.675775543377902,0.24476169526874053,2.5857744216918945,1.0
621,1,621,-1,1,-0.3574989685789851,-0.24348392381099887,1.6976342206853006,0.675775543377902,0.24476169526874053,1.4117602109909058,0.0
622,1,622,1,-1,1.2145579306064118,1.207149344291717,1.6976342206853006,0.675775543377902,0.24476169526874053,0.9037567973136902,1.0
623,1,623,1,1,-0.5575428326450234,1.0883383135008218,1.6976342206853006,0.675775543377902,0.24476169526874053,1.2917546033859253,1.0
624,1,624,-1,1,-0.558807469853162,-0.24348392381099887,1.6976342206853006,0.675775543377902,0.24476169526874053,3.2497262954711914,0.0
625,1,625,1,1,-1.0727481213688428,1.0883383135008218,1.6976342206853006,0.675775543377902,0.24476169526874053,1.2767539024353027,1.0
626,1,626,1,-1,3.457935650826102,1.207149344291717,1.6976342206853006,0.675775543377902,0.24476169526874053,0.808758020401001,1.0
627,1,627,1,-1,-0.7667204933361959,1.207149344291717,1.6976342206853006,0.675775543377902,0.24476169526874053,1.9207839965820312,1.0
628,1,628,1,-1,-1.898590978215257,1.207149344291717,1.6976342206853006,0.675775543377902,0.24476169526874053,0.6637598276138306,1.0
629,1,629,1,-1,0.5101437315131002,1.207149344291717,1.6976342206853006,0.675775543377902,0.24476169526874053,0.5107617974281311,1.0
630,1,630,-1,-1,0.13675624965621924,-0.12467289302010381,1.6976342206853006,0.675775543377902,0.24476169526874053,5.489563941955566,0.0
631,1,631,1,1,0.22822598074146283,1.0883383135008218,1.6976342206853006,0.675775543377902,0.24476169526874053,1.481763482093811,1.0
632,1,632,1,-1,2.3845190800017155,1.207149344291717,1.6976342206853006,0.675775543377902,0.24476169526874053,2.097792148590088,1.0
633,1,633,1,-1,-0.43665080088795,1.207149344291717,1.6976342206853006,0.675775543377902,0.24476169526874053,2.0397894382476807,1.0
634,1,634,-1,1,0.2500079504468102,-0.24348392381099887,1.6976342206853006,0.675775543377902,0.24476169526874053,2.749762535095215,0.0
635,1,635,1,1,0.04269686282331306,1.0883383135008218,1.6976342206853006,0.675775543377902,0.24476169526874053,3.322721004486084,1.0
636,1,636,-1,-1,-0.8303014303291468,-0.12467289302010381,1.6976342206853006,0.675775543377902,0.24476169526874053,1.5367660522460938,0.0
637,1,637,1,-1,-0.40504248787152175,1.207149344291717,1.6976342206853006,0.675775543377902,0.24476169526874053,1.9227840900421143,1.0
638,1,638,-1,-1,0.34026694268036123,-0.12467289302010381,1.6976342206853006,0.675775543377902,0.24476169526874053,1.0987542867660522,1.0
639,1,639,1,-1,1.5468592548922375,1.207149344291717,1.6976342206853006,0.675775543377902,0.24476169526874053,1.0967543125152588,1.0
640,1,640,-1,1,2.2728391391988207,-0.24348392381099887,1.6976342206853006,0.675775543377902,0.24476169526874053,2.104792594909668,0.0
641,1,641,-1,1,-0.28272647261555306,-0.24348392381099887,1.6976342206853006,0.675775543377902,0.24476169526874053,2.2177977561950684,0.0
642,1,642,1,-1,-1.5334687331262964,1.207149344291717,1.6976342206853006,0.675775543377902,0.24476169526874053,0.8277577757835388,1.0
643,1,643,-1,1,-0.910864421965357,-0.24348392381099887,1.6976342206853006,0.675775543377902,0.24476169526874053,2.834756374359131,1.0
644,1,644,-1,1,-1.1747438418318665,-0.24348392381099887,1.6976342206853006,0.675775543377902,0.24476169526874053,1.1837531328201294,1.0
645,1,645,1,-1,0.7044198066405201,1.207149344291717,1.6976342206853006,0.675775543377902,0.24476169526874053,0.7467588186264038,1.0
646,1,646,1,1,0.0051591641667492055,1.0883383135008218,1.6976342206853006,0.675775543377902,0.24476169526874053,0.6457600593566895,1.0
647,1,647,-1,1,0.8928142553801883,-0.24348392381099887,1.6976342206853006,0.675775543377902,0.24476169526874053,4.838611125946045,0.0
648,1,648,-1,1,-0.7880165182980657,-0.24348392381099887,1.6976342206853006,0.675775543377902,0.24476169526874053,7.612410068511963,0.0
649,1,649,-1,1,-1.4314860185097098,-0.24348392381099887,1.6976342206853006,0.675775543377902,0.24476169526874053,3.2737245559692383,0.0
650,1,650,1,1,-0.33538662766971905,1.0883383135008218,1.6976342206853006,0.675775543377902,0.24476169526874053,1.0317550897598267,1.0
651,1,651,-1,1,-0.11540416205277614,-0.24348392381099887,1.6976342206853006,0.675775543377902,0.24476169526874053,2.1917965412139893,0.0
652,1,652,-1,1,1.0563285153357056,-0.24348392381099887,1.6976342206853006,0.675775543377902,0.24476169526874053,0.724759042263031,1.0
653,1,653,1,1,-0.8373023531490214,1.0883383135008218,1.6976342206853006,0.675775543377902,0.24476169526874053,0.9797558188438416,1.0
654,1,654,-1,-1,0.38418447482679124,-0.12467289302010381,1.6976342206853006,0.675775543377902,0.24476169526874053,0.5227616429328918,1.0
655,1,655,1,1,-0.582003423736903,1.0883383135008218,1.6976342206853006,0.675775543377902,0.24476169526874053,0.9057567715644836,1.0
656,1,656,1,1,0.7760205957136516,1.0883383135008218,1.6976342206853006,0.675775543377902,0.24476169526874053,3.0977373123168945,1.0
657,1,657,-1,-1,0.5830066227946009,-0.12467289302010381,1.6976342206853006,0.675775543377902,0.24476169526874053,1.491763949394226,1.0
658,1,658,1,-1,-1.0429456059117217,1.207149344291717,1.6976342206853006,0.675775543377902,0.24476169526874053,0.7917582392692566,1.0
659,1,659,1,-1,-1.2158965654265605,1.207149344291717,1.6976342206853006,0.675775543377902,0.24476169526874053,0.5507612824440002,1.0
660,1,660,1,1,0.933698177337289,1.0883383135008218,1.6976342206853006,0.675775543377902,0.24476169526874053,0.6417601108551025,1.0
661,1,661,-1,1,-0.17634531665954323,-0.24348392381099887,1.6976342206853006,0.675775543377902,0.24476169526874053,0.7997581362724304,1.0
662,1,662,1,1,-0.9349332488522795,1.0883383135008218,1.6976342206853006,0.675775543377902,0.24476169526874053,0.4937620162963867,1.0
663,1,663,-1,1,0.25205217461161333,-0.24348392381099887,1.6976342206853006,0.675775543377902,0.24476169526874053,2.9487481117248535,0.0
664,1,664,-1,-1,-1.1432992541298528,-0.12467289302010381,1.6976342206853006,0.675775543377902,0.24476169526874053,1.465762734413147,1.0
665,1,665,-1,1,-0.6903771503271737,-0.24348392381099887,1.6976342206853006,0.675775543377902,0.24476169526874053,2.0657906532287598,0.0
666,1,666,1,1,0.9418872100587996,1.0883383135008218,1.6976342206853006,0.675775543377902,0.24476169526874053,0.8237578272819519,1.0
667,1,667,1,1,-1.322373816365327,1.0883383135008218,1.6976342206853006,0.675775543377902,0.24476169526874053,2.9277496337890625,1.0
668,1,668,1,1,-0.05818319946211077,1.0883383135008218,1.6976342206853006,0.675775543377902,0.24476169526874053,0.7917582392692566,1.0
669,1,669,-1,-1,0.8949740125879131,-0.12467289302010381,1.6976342206853006,0.675775543377902,0.24476169526874053,8.19036865234375,1.0
670,1,670,-1,-1,1.5933558453667622,-0.12467289302010381,1.6976342206853006,0.675775543377902,0.24476169526874053,7.824394702911377,1.0
671,1,671,-1,1,0.39055502969918604,-0.24348392381099887,1.6976342206853006,0.675775543377902,0.24476169526874053,2.300795078277588,1.0
672,1,672,-1,1,1.2280939595859013,-0.24348392381099887,1.6976342206853006,0.675775543377902,0.24476169526874053,0.8577573895454407,1.0
673,1,673,-1,1,-0.20052505215518573,-0.24348392381099887,1.6976342206853006,0.675775543377902,0.24476169526874053,2.6247715950012207,0.0
674,1,674,-1,-1,-0.5663596107805906,-0.12467289302010381,1.6976342206853006,0.675775543377902,0.24476169526874053,4.082665920257568,0.0
675,1,675,1,-1,0.8444424051468741,1.207149344291717,1.6976342206853006,0.675775543377902,0.24476169526874053,0.867757260799408,1.0
676,1,676,-1,-1,-1.17157620359783,-0.12467289302010381,1.6976342206853006,0.675775543377902,0.24476169526874053,0.7877582907676697,1.0
677,1,677,-1,-1,1.119135296735871,-0.12467289302010381,1.6976342206853006,0.675775543377902,0.24476169526874053,3.8916797637939453,0.0
678,1,678,1,1,0.5181673189579535,1.0883383135008218,1.6976342206853006,0.675775543377902,0.24476169526874053,0.8827570676803589,1.0
679,1,679,-1,-1,0.23379100083147875,-0.12467289302010381,1.6976342206853006,0.675775543377902,0.24476169526874053,0.440761923789978,1.0
680,1,680,1,1,0.5776187445627535,1.0883383135008218,1.6976342206853006,0.675775543377902,0.24476169526874053,0.5237616300582886,1.0
681,1,681,1,1,-0.7793618965691379,1.0883383135008218,1.6976342206853006,0.675775543377902,0.24476169526874053,1.6617718935012817,1.0
682,1,682,-1,1,0.39533522549210925,-0.24348392381099887,1.6976342206853006,0.675775543377902,0.24476169526874053,5.687549591064453,0.0
683,1,683,1,1,1.525993014961567,1.0883383135008218,1.6976342206853006,0.675775543377902,0.24476169526874053,1.2147527933120728,1.0
684,1,684,-1,-1,-1.1860782179185383,-0.12467289302010381,1.6976342206853006,0.675775543377902,0.24476169526874053,0.7697585225105286,1.0
685,1,685,1,1,-0.3673352564018095,1.0883383135008218,1.6976342206853006,0.675775543377902,0.24476169526874053,0.782758355140686,1.0
686,1,686,-1,1,0.11360217032796056,-0.24348392381099887,1.6976342206853006,0.675775543377902,0.24476169526874053,1.9187839031219482,1.0
687,1,687,1,1,1.137319730008878,1.0883383135008218,1.6976342206853006,0.675775543377902,0.24476169526874053,0.5087618231773376,1.0
688,1,688,1,1,0.6245879004919539,1.0883383135008218,1.6976342206853006,0.675775543377902,0.24476169526874053,0.5357614755630493,1.0
689,1,689,1,-1,0.004676580927354609,1.207149344291717,1.6976342206853006,0.675775543377902,0.24476169526874053,0.9657559990882874,1.0
690,1,690,1,1,0.827521329530586,1.0883383135008218,1.6976342206853006,0.675775543377902,0.24476169526874053,0.9427562952041626,1.0
691,1,691,-1,1,0.7726628526005269,-0.24348392381099887,1.6976342206853006,0.675775543377902,0.24476169526874053,6.8964619636535645,0.0
692,1,692,1,1,1.0843680585156608,1.0883383135008218,1.6976342206853006,0.675775543377902,0.24476169526874053,1.8927826881408691,1.0
693,1,693,1,-1,-0.692807027633175,1.207149344291717,1.6976342206853006,0.675775543377902,0.24476169526874053,0.65475994348526,1.0
694,1,694,1,-1,-1.5241174537120064,1.207149344291717,1.6976342206853006,0.675775543377902,0.24476169526874053,1.739775538444519,1.0
695,1,695,1,-1,-0.9495575874737363,1.207149344291717,1.6976342206853006,0.675775543377902,0.24476169526874053,1.036755084991455,1.0
696,1,696,-1,-1,-2.067388432468511,-0.12467289302010381,1.6976342206853006,0.675775543377902,0.24476169526874053,2.769761085510254,1.0
697,1,697,1,-1,-0.37632975717572525,1.207149344291717,1.6976342206853006,0.675775543377902,0.24476169526874053,0.6587598919868469,1.0
698,1,698,1,1,-0.25708108824778425,1.0883383135008218,1.6976342206853006,0.675775543377902,0.24476169526874053,0.8317577242851257,1.0
699,1,699,-1,-1,0.20567047835591945,-0.12467289302010381,1.6976342206853006,0.675775543377902,0.24476169526874053,0.7487587928771973,1.0
700,1,700,1,1,0.815878027871619,1.0883383135008218,1.6976342206853006,0.675775543377902,0.24476169526874053,2.407787322998047,1.0
701,1,701,1,-1,-1.6253176528058937,1.207149344291717,1.6976342206853006,0.675775543377902,0.24476169526874053,0.5657610893249512,1.0
702,1,702,-1,1,1.4606595463162744,-0.24348392381099887,1.6976342206853006,0.675775543377902,0.24476169526874053,3.7546896934509277,1.0
703,1,703,-1,-1,-1.1812672355283476,-0.12467289302010381,1.6976342206853006,0.675775543377902,0.24476169526874053,2.724764347076416,0.0
704,1,704,1,-1,0.570272667101482,1.207149344291717,1.6976342206853006,0.675775543377902,0.24476169526874053,0.551761269569397,1.0
705,1,705,1,-1,1.8096683037920134,1.207149344291717,1.6976342206853006,0.675775543377902,0.24476169526874053,0.6697597503662109,1.0
706,1,706,1,-1,-1.4149762626392557,1.207149344291717,1.6976342206853006,0.675775543377902,0.24476169526874053,1.133753776550293,1.0
707,1,707,-1,1,-0.03451609900305856,-0.24348392381099887,1.6976342206853006,0.675775543377902,0.24476169526874053,1.4377614259719849,1.0
708,1,708,1,1,1.0238578081274023,1.0883383135008218,1.6976342206853006,0.675775543377902,0.24476169526874053,0.6907594799995422,1.0
709,1,709,1,1,-0.08040570538004806,1.0883383135008218,1.6976342206853006,0.675775543377902,0.24476169526874053,0.5427613854408264,1.0
710,1,710,1,1,0.29616739561324995,1.0883383135008218,1.6976342206853006,0.675775543377902,0.24476169526874053,0.6207603812217712,1.0
711,1,711,1,1,1.536758362323202,1.0883383135008218,1.6976342206853006,0.675775543377902,0.24476169526874053,0.9977555871009827,1.0
712,1,712,-1,1,-1.3437030989791974,-0.24348392381099887,1.6976342206853006,0.675775543377902,0.24476169526874053,1.5577670335769653,0.0
713,1,713,-1,-1,0.11225578002880597,-0.12467289302010381,1.6976342206853006,0.675775543377902,0.24476169526874053,1.0137553215026855,0.0
714,1,714,-1,-1,-0.9960774042597593,-0.12467289302010381,1.6976342206853006,0.675775543377902,0.24476169526874053,5.042596340179443,0.0
715,1,715,1,1,0.29334031065569705,1.0883383135008218,1.6976342206853006,0.675775543377902,0.24476169526874053,1.2357524633407593,1.0
716,1,716,1,1,0.6593081305910266,1.0883383135008218,1.6976342206853006,0.675775543377902,0.24476169526874053,0.6677597761154175,1.0
717,1,717,1,-1,1.1870558264252349,1.207149344291717,1.6976342206853006,0.675775543377902,0.24476169526874053,1.0227552652359009,1.0
718,1,718,-1,1,-0.22521563223514485,-0.24348392381099887,1.6976342206853006,0.675775543377902,0.24476169526874053,3.1177358627319336,0.0
719,1,719,-1,1,-1.2632120312825894,-0.24348392381099887,1.6976342206853006,0.675775543377902,0.24476169526874053,6.644480228424072,0.0
720,1,720,-1,-1,0.8813103384628381,-0.12467289302010381,1.6976342206853006,0.675775543377902,0.24476169526874053,5.878535747528076,1.0
721,1,721,-1,-1,-0.48509075974858973,-0.12467289302010381,1.6976342206853006,0.675775543377902,0.24476169526874053,5.417569160461426,0.0
722,1,722,1,-1,-0.17013129700738028,1.207149344291717,1.6976342206853006,0.675775543377902,0.24476169526874053,0.7077592611312866,1.0
723,1,723,1,1,1.4431256497077074,1.0883383135008218,1.6976342206853006,0.675775543377902,0.24476169526874053,0.6597598791122437,1.0
724,1,724,-1,1,2.3296251457433366,-0.24348392381099887,1.6976342206853006,0.675775543377902,0.24476169526874053,20.245399475097656,1.0
725,1,725,1,1,2.502994727897901,1.0883383135008218,1.6976342206853006,0.675775543377902,0.24476169526874053,2.0257887840270996,1.0
726,1,726,1,-1,-0.40483223596633583,1.207149344291717,1.6976342206853006,0.675775543377902,0.24476169526874053,1.1937530040740967,1.0
727,1,727,-1,1,-0.14254355382943673,-0.24348392381099887,1.6976342206853006,0.675775543377902,0.24476169526874053,1.6137696504592896,1.0
728,1,728,1,-1,0.026517618625290132,1.207149344291717,1.6976342206853006,0.675775543377902,0.24476169526874053,0.6487600207328796,1.0
729,1,729,-1,-1,-0.07652348650416381,-0.12467289302010381,1.6976342206853006,0.675775543377902,0.24476169526874053,2.109792709350586,1.0
730,1,730,-1,1,0.34844118630776993,-0.24348392381099887,1.6976342206853006,0.675775543377902,0.24476169526874053,2.4167866706848145,0.0
731,1,731,1,-1,0.2516696725854216,1.207149344291717,1.6976342206853006,0.675775543377902,0.24476169526874053,1.2557529211044312,1.0
732,1,732,-1,-1,-0.4196476914661578,-0.12467289302010381,1.6976342206853006,0.675775543377902,0.24476169526874053,6.18751335144043,0.0
733,1,733,-1,1,-1.7266057864883584,-0.24348392381099887,1.6976342206853006,0.675775543377902,0.24476169526874053,1.2957547903060913,1.0
734,1,734,1,-1,-0.2447047505439332,1.207149344291717,1.6976342206853006,0.675775543377902,0.24476169526874053,0.9577561020851135,1.0
735,1,735,1,1,-0.6752055861702045,1.0883383135008218,1.6976342206853006,0.675775543377902,0.24476169526874053,2.430785655975342,0.0
736,1,736,1,1,-0.06187798528889128,1.0883383135008218,1.6976342206853006,0.675775543377902,0.24476169526874053,1.6947734355926514,1.0
737,1,737,1,-1,0.49333229051539884,1.207149344291717,1.6976342206853006,0.675775543377902,0.24476169526874053,0.42776188254356384,1.0
738,1,738,-1,-1,1.439904893941002,-0.12467289302010381,1.6976342206853006,0.675775543377902,0.24476169526874053,1.326756238937378,0.0
739,1,739,1,1,-0.15618502363578646,1.0883383135008218,1.6976342206853006,0.675775543377902,0.24476169526874053,0.6797596216201782,1.0
740,1,740,-1,1,-0.2602592395936065,-0.24348392381099887,1.6976342206853006,0.675775543377902,0.24476169526874053,8.938644409179688,0.0
741,1,741,1,-1,-0.3663695456341021,1.207149344291717,1.6976342206853006,0.675775543377902,0.24476169526874053,0.981755793094635,1.0
742,1,742,-1,-1,-0.41059160575528936,-0.12467289302010381,1.6976342206853006,0.675775543377902,0.24476169526874053,5.6575517654418945,0.0
743,1,743,-1,-1,0.41185891817754683,-0.12467289302010381,1.6976342206853006,0.675775543377902,0.24476169526874053,0.5537612438201904,1.0
744,1,744,-1,-1,0.40156639499812297,-0.12467289302010381,1.6976342206853006,0.675775543377902,0.24476169526874053,0.6597598791122437,1.0
745,1,745,-1,1,1.8980135149135329,-0.24348392381099887,1.6976342206853006,0.675775543377902,0.24476169526874053,1.5287656784057617,1.0
746,1,746,-1,1,-1.2720305600664394,-0.24348392381099887,1.6976342206853006,0.675775543377902,0.24476169526874053,1.3417569398880005,1.0
