,subj_idx,trial_idx,S,X,M,v,a,z,t,rt,response
0,1,0,-1,1,0.7858143069645172,1.6327800905493606,1.2342391860804502,0.652824293097709,1.563132175511263,1.7621324062347412,1.0
1,1,1,-1,1,-0.6696402494058433,1.6327800905493606,1.2342391860804502,0.652824293097709,1.563132175511263,1.8001325130462646,1.0
2,1,2,-1,1,-0.15703420718334304,1.6327800905493606,1.2342391860804502,0.652824293097709,1.563132175511263,1.8731317520141602,1.0
3,1,3,1,-1,1.0882519438928069,1.803666924360489,1.2342391860804502,0.652824293097709,1.563132175511263,2.3221259117126465,1.0
4,1,4,-1,-1,-2.163206104507732,1.6327800905493606,1.2342391860804502,0.652824293097709,1.563132175511263,1.7271323204040527,1.0
5,1,5,-1,1,-0.871788002938609,1.6327800905493606,1.2342391860804502,0.652824293097709,1.563132175511263,1.6791322231292725,1.0
6,1,6,-1,-1,-1.4404466379868015,1.6327800905493606,1.2342391860804502,0.652824293097709,1.563132175511263,2.205127477645874,1.0
7,1,7,-1,-1,1.9157224771552535,1.6327800905493606,1.2342391860804502,0.652824293097709,1.563132175511263,1.707132339477539,1.0
8,1,8,1,-1,-1.0618314957274206,1.803666924360489,1.2342391860804502,0.652824293097709,1.563132175511263,2.2331271171569824,1.0
9,1,9,1,-1,0.33817206973250974,1.803666924360489,1.2342391860804502,0.652824293097709,1.563132175511263,2.9171395301818848,1.0
10,1,10,-1,-1,-0.9209275558046686,1.6327800905493606,1.2342391860804502,0.652824293097709,1.563132175511263,2.5971245765686035,1.0
11,1,11,-1,1,0.205151141235966,1.6327800905493606,1.2342391860804502,0.652824293097709,1.563132175511263,2.067129135131836,1.0
12,1,12,-1,-1,0.33377006489250904,1.6327800905493606,1.2342391860804502,0.652824293097709,1.563132175511263,3.6241650581359863,1.0
13,1,13,1,-1,-0.6310055452882873,1.803666924360489,1.2342391860804502,0.652824293097709,1.563132175511263,2.3341257572174072,1.0
14,1,14,1,-1,1.074369586406646,1.803666924360489,1.2342391860804502,0.652824293097709,1.563132175511263,2.5641229152679443,1.0
15,1,15,-1,1,0.09745911847639757,1.6327800905493606,1.2342391860804502,0.652824293097709,1.563132175511263,1.7961324453353882,1.0
16,1,16,1,-1,-0.7246328672722812,1.803666924360489,1.2342391860804502,0.652824293097709,1.563132175511263,1.9531307220458984,1.0
17,1,17,-1,1,2.676039131328135,1.6327800905493606,1.2342391860804502,0.652824293097709,1.563132175511263,1.6941322088241577,1.0
18,1,18,1,1,0.3406932743499959,1.803666924360489,1.2342391860804502,0.652824293097709,1.563132175511263,2.111128807067871,1.0
19,1,19,1,-1,0.9826612746938992,1.803666924360489,1.2342391860804502,0.652824293097709,1.563132175511263,1.7401323318481445,1.0
20,1,20,1,-1,1.0174216402374772,1.803666924360489,1.2342391860804502,0.652824293097709,1.563132175511263,1.7431323528289795,1.0
21,1,21,1,1,0.36197061190221724,1.803666924360489,1.2342391860804502,0.652824293097709,1.563132175511263,2.5071234703063965,1.0
22,1,22,1,1,0.9543748108248936,1.803666924360489,1.2342391860804502,0.652824293097709,1.563132175511263,3.9211435317993164,1.0
23,1,23,1,-1,-0.36970037304644315,1.803666924360489,1.2342391860804502,0.652824293097709,1.563132175511263,2.2201273441314697,1.0
24,1,24,1,-1,-0.9244147335916574,1.803666924360489,1.2342391860804502,0.652824293097709,1.563132175511263,2.934140205383301,1.0
25,1,25,1,-1,1.453367101908301,1.803666924360489,1.2342391860804502,0.652824293097709,1.563132175511263,1.674132227897644,1.0
26,1,26,-1,1,-0.41145449168559456,1.6327800905493606,1.2342391860804502,0.652824293097709,1.563132175511263,2.2671265602111816,1.0
27,1,27,-1,1,-0.9451799090338173,1.6327800905493606,1.2342391860804502,0.652824293097709,1.563132175511263,1.769132375717163,1.0
28,1,28,-1,1,0.3655378560657315,1.6327800905493606,1.2342391860804502,0.652824293097709,1.563132175511263,1.7461323738098145,1.0
29,1,29,1,-1,-1.4012297893104328,1.803666924360489,1.2342391860804502,0.652824293097709,1.563132175511263,1.7391324043273926,1.0
30,1,30,-1,1,0.09655911263084677,1.6327800905493606,1.2342391860804502,0.652824293097709,1.563132175511263,1.9931302070617676,1.0
31,1,31,-1,-1,-0.6090288905344078,1.6327800905493606,1.2342391860804502,0.652824293097709,1.563132175511263,2.389125108718872,1.0
32,1,32,-1,1,-0.8644570167119783,1.6327800905493606,1.2342391860804502,0.652824293097709,1.563132175511263,2.255126953125,1.0
33,1,33,1,-1,-0.07106036993748238,1.803666924360489,1.2342391860804502,0.652824293097709,1.563132175511263,1.9931302070617676,1.0
34,1,34,-1,-1,0.9063975624143348,1.6327800905493606,1.2342391860804502,0.652824293097709,1.563132175511263,2.715129852294922,1.0
35,1,35,-1,1,1.1000694752694962,1.6327800905493606,1.2342391860804502,0.652824293097709,1.563132175511263,1.9981300830841064,1.0
36,1,36,1,-1,0.07128758864205105,1.803666924360489,1.2342391860804502,0.652824293097709,1.563132175511263,1.7161322832107544,1.0
37,1,37,-1,1,-0.5637158358336518,1.6327800905493606,1.2342391860804502,0.652824293097709,1.563132175511263,1.8401321172714233,1.0
38,1,38,1,-1,-1.0458036973475338,1.803666924360489,1.2342391860804502,0.652824293097709,1.563132175511263,2.3271260261535645,1.0
39,1,39,1,-1,0.3923529735729381,1.803666924360489,1.2342391860804502,0.652824293097709,1.563132175511263,1.7941324710845947,1.0
40,1,40,1,-1,-0.04502083566134619,1.803666924360489,1.2342391860804502,0.652824293097709,1.563132175511263,1.9281309843063354,1.0
41,1,41,1,1,-0.39778348242178097,1.803666924360489,1.2342391860804502,0.652824293097709,1.563132175511263,2.013129949569702,1.0
42,1,42,1,1,1.9273668157624937,1.803666924360489,1.2342391860804502,0.652824293097709,1.563132175511263,1.9841302633285522,1.0
43,1,43,-1,-1,0.9945412633492952,1.6327800905493606,1.2342391860804502,0.652824293097709,1.563132175511263,2.4211246967315674,1.0
44,1,44,1,1,-0.8686937432760984,1.803666924360489,1.2342391860804502,0.652824293097709,1.563132175511263,1.922131061553955,1.0
45,1,45,-1,-1,-0.06837734920617858,1.6327800905493606,1.2342391860804502,0.652824293097709,1.563132175511263,1.6421321630477905,1.0
46,1,46,1,1,1.876364645060128,1.803666924360489,1.2342391860804502,0.652824293097709,1.563132175511263,4.362111568450928,1.0
47,1,47,1,-1,-1.429020617854609,1.803666924360489,1.2342391860804502,0.652824293097709,1.563132175511263,1.7121323347091675,1.0
48,1,48,-1,-1,0.26327428620120497,1.6327800905493606,1.2342391860804502,0.652824293097709,1.563132175511263,1.7631323337554932,1.0
49,1,49,-1,1,-1.7294034084453316,1.6327800905493606,1.2342391860804502,0.652824293097709,1.563132175511263,1.9711304903030396,1.0
50,1,50,1,-1,-0.6030855001734706,1.803666924360489,1.2342391860804502,0.652824293097709,1.563132175511263,2.4161248207092285,1.0
51,1,51,-1,1,0.6184183756979605,1.6327800905493606,1.2342391860804502,0.652824293097709,1.563132175511263,1.7581323385238647,1.0
52,1,52,-1,-1,0.8645236201513536,1.6327800905493606,1.2342391860804502,0.652824293097709,1.563132175511263,2.079129219055176,1.0
53,1,53,-1,1,1.8807691571241005,1.6327800905493606,1.2342391860804502,0.652824293097709,1.563132175511263,1.6601321697235107,1.0
54,1,54,-1,-1,-2.0898158236449484,1.6327800905493606,1.2342391860804502,0.652824293097709,1.563132175511263,1.8941314220428467,1.0
55,1,55,-1,1,-0.059382539150763566,1.6327800905493606,1.2342391860804502,0.652824293097709,1.563132175511263,2.305126190185547,1.0
56,1,56,1,-1,-0.5133035144631093,1.803666924360489,1.2342391860804502,0.652824293097709,1.563132175511263,2.5651230812072754,1.0
57,1,57,-1,1,-1.7694141527960148,1.6327800905493606,1.2342391860804502,0.652824293097709,1.563132175511263,2.3741252422332764,1.0
58,1,58,-1,1,-1.875757082262277,1.6327800905493606,1.2342391860804502,0.652824293097709,1.563132175511263,2.6721279621124268,1.0
59,1,59,1,-1,-0.6204050629898946,1.803666924360489,1.2342391860804502,0.652824293097709,1.563132175511263,2.682128429412842,1.0
60,1,60,-1,-1,0.14210677657271298,1.6327800905493606,1.2342391860804502,0.652824293097709,1.563132175511263,1.6981322765350342,1.0
61,1,61,1,1,0.7800739937821883,1.803666924360489,1.2342391860804502,0.652824293097709,1.563132175511263,1.7541323900222778,1.0
62,1,62,-1,-1,0.3411957676358966,1.6327800905493606,1.2342391860804502,0.652824293097709,1.563132175511263,1.7201323509216309,1.0
63,1,63,1,1,-0.8595313274801598,1.803666924360489,1.2342391860804502,0.652824293097709,1.563132175511263,1.6521321535110474,1.0
64,1,64,1,1,-0.4194050595406481,1.803666924360489,1.2342391860804502,0.652824293097709,1.563132175511263,1.903131365776062,1.0
65,1,65,-1,1,0.6852312939800063,1.6327800905493606,1.2342391860804502,0.652824293097709,1.563132175511263,1.8231323957443237,1.0
66,1,66,-1,-1,-1.7558620132645715,1.6327800905493606,1.2342391860804502,0.652824293097709,1.563132175511263,1.9841302633285522,1.0
67,1,67,-1,-1,0.2017265820667054,1.6327800905493606,1.2342391860804502,0.652824293097709,1.563132175511263,1.6961323022842407,1.0
68,1,68,1,1,0.7991836821786767,1.803666924360489,1.2342391860804502,0.652824293097709,1.563132175511263,2.0331296920776367,1.0
69,1,69,-1,1,0.10399324839120253,1.6327800905493606,1.2342391860804502,0.652824293097709,1.563132175511263,1.9011313915252686,1.0
70,1,70,1,-1,-1.8920403232074545,1.803666924360489,1.2342391860804502,0.652824293097709,1.563132175511263,1.9901301860809326,1.0
71,1,71,-1,-1,0.19072414386908304,1.6327800905493606,1.2342391860804502,0.652824293097709,1.563132175511263,1.992130160331726,1.0
72,1,72,1,1,0.2759180455025759,1.803666924360489,1.2342391860804502,0.652824293097709,1.563132175511263,2.1821277141571045,1.0
73,1,73,-1,1,1.2644555231155479,1.6327800905493606,1.2342391860804502,0.652824293097709,1.563132175511263,2.5691232681274414,1.0
74,1,74,-1,-1,-0.2155025001963396,1.6327800905493606,1.2342391860804502,0.652824293097709,1.563132175511263,1.9021313190460205,1.0
75,1,75,1,1,2.90909178759845,1.803666924360489,1.2342391860804502,0.652824293097709,1.563132175511263,1.9821302890777588,1.0
76,1,76,1,-1,0.9314213703316516,1.803666924360489,1.2342391860804502,0.652824293097709,1.563132175511263,2.121128559112549,1.0
77,1,77,-1,-1,-1.1514397293390632,1.6327800905493606,1.2342391860804502,0.652824293097709,1.563132175511263,2.1381282806396484,1.0
78,1,78,-1,-1,-0.39575965428790516,1.6327800905493606,1.2342391860804502,0.652824293097709,1.563132175511263,3.3171582221984863,1.0
79,1,79,1,-1,0.1989321207415517,1.803666924360489,1.2342391860804502,0.652824293097709,1.563132175511263,2.259126663208008,1.0
80,1,80,-1,-1,-0.6543514180886808,1.6327800905493606,1.2342391860804502,0.652824293097709,1.563132175511263,1.7831324338912964,1.0
81,1,81,1,-1,-0.038727894974635024,1.803666924360489,1.2342391860804502,0.652824293097709,1.563132175511263,1.859131932258606,1.0
82,1,82,1,-1,0.8002081331733814,1.803666924360489,1.2342391860804502,0.652824293097709,1.563132175511263,1.9631305932998657,1.0
83,1,83,-1,-1,-0.6124569389651119,1.6327800905493606,1.2342391860804502,0.652824293097709,1.563132175511263,2.0541293621063232,1.0
84,1,84,1,-1,0.16893903232088509,1.803666924360489,1.2342391860804502,0.652824293097709,1.563132175511263,1.6731321811676025,1.0
85,1,85,1,1,0.5398121291159402,1.803666924360489,1.2342391860804502,0.652824293097709,1.563132175511263,1.9671305418014526,1.0
86,1,86,1,1,0.03397350120515123,1.803666924360489,1.2342391860804502,0.652824293097709,1.563132175511263,2.06412935256958,1.0
87,1,87,-1,-1,0.07757754927197798,1.6327800905493606,1.2342391860804502,0.652824293097709,1.563132175511263,1.7901324033737183,1.0
88,1,88,-1,1,-0.20993776548577886,1.6327800905493606,1.2342391860804502,0.652824293097709,1.563132175511263,1.9311310052871704,1.0
89,1,89,1,1,-0.7717911399365049,1.803666924360489,1.2342391860804502,0.652824293097709,1.563132175511263,2.2381269931793213,1.0
90,1,90,1,-1,-0.2804397731606008,1.803666924360489,1.2342391860804502,0.652824293097709,1.563132175511263,1.9641305208206177,1.0
91,1,91,-1,-1,-0.4306808064267393,1.6327800905493606,1.2342391860804502,0.652824293097709,1.563132175511263,3.612165927886963,1.0
92,1,92,1,-1,-0.847091245975645,1.803666924360489,1.2342391860804502,0.652824293097709,1.563132175511263,1.808132529258728,1.0
93,1,93,-1,-1,1.3932440083403388,1.6327800905493606,1.2342391860804502,0.652824293097709,1.563132175511263,1.7491323947906494,1.0
94,1,94,-1,-1,0.986605331758655,1.6327800905493606,1.2342391860804502,0.652824293097709,1.563132175511263,1.7951323986053467,1.0
95,1,95,1,-1,-1.756951005552185,1.803666924360489,1.2342391860804502,0.652824293097709,1.563132175511263,1.641132116317749,1.0
96,1,96,1,1,1.7173016155523846,1.803666924360489,1.2342391860804502,0.652824293097709,1.563132175511263,1.745132327079773,1.0
97,1,97,-1,-1,-1.7023565550436661,1.6327800905493606,1.2342391860804502,0.652824293097709,1.563132175511263,3.285156726837158,1.0
98,1,98,-1,1,-0.030629749801116643,1.6327800905493606,1.2342391860804502,0.652824293097709,1.563132175511263,1.9191311597824097,1.0
99,1,99,-1,1,-0.11187818195956246,1.6327800905493606,1.2342391860804502,0.652824293097709,1.563132175511263,1.775132417678833,1.0
100,1,100,1,-1,-1.303362725123615,1.803666924360489,1.2342391860804502,0.652824293097709,1.563132175511263,1.899131417274475,1.0
101,1,101,1,-1,-1.3789895621833645,1.803666924360489,1.2342391860804502,0.652824293097709,1.563132175511263,1.995130181312561,1.0
102,1,102,-1,-1,-1.0598850234724257,1.6327800905493606,1.2342391860804502,0.652824293097709,1.563132175511263,2.950140953063965,1.0
103,1,103,-1,1,-2.2675518241804764,1.6327800905493606,1.2342391860804502,0.652824293097709,1.563132175511263,1.6341321468353271,1.0
104,1,104,1,1,0.06173253310252334,1.803666924360489,1.2342391860804502,0.652824293097709,1.563132175511263,2.3791251182556152,1.0
105,1,105,-1,-1,-0.11781522279147505,1.6327800905493606,1.2342391860804502,0.652824293097709,1.563132175511263,2.2741265296936035,1.0
106,1,106,-1,-1,-1.6546827709607979,1.6327800905493606,1.2342391860804502,0.652824293097709,1.563132175511263,1.8111324310302734,1.0
107,1,107,-1,-1,0.24999817003879832,1.6327800905493606,1.2342391860804502,0.652824293097709,1.563132175511263,1.9841302633285522,1.0
108,1,108,-1,1,0.8568956428818321,1.6327800905493606,1.2342391860804502,0.652824293097709,1.563132175511263,1.7951323986053467,1.0
109,1,109,-1,1,-2.8330776157809097,1.6327800905493606,1.2342391860804502,0.652824293097709,1.563132175511263,2.9231395721435547,1.0
110,1,110,-1,1,0.002745568900944434,1.6327800905493606,1.2342391860804502,0.652824293097709,1.563132175511263,2.778132915496826,1.0
111,1,111,-1,-1,1.2622848358317162,1.6327800905493606,1.2342391860804502,0.652824293097709,1.563132175511263,1.9101312160491943,1.0
112,1,112,1,1,0.09633726635302947,1.803666924360489,1.2342391860804502,0.652824293097709,1.563132175511263,2.397125005722046,1.0
113,1,113,-1,-1,-0.699262494934108,1.6327800905493606,1.2342391860804502,0.652824293097709,1.563132175511263,1.9381308555603027,1.0
114,1,114,-1,-1,0.7820586899352427,1.6327800905493606,1.2342391860804502,0.652824293097709,1.563132175511263,1.6681321859359741,1.0
115,1,115,1,1,-0.7607009040773902,1.803666924360489,1.2342391860804502,0.652824293097709,1.563132175511263,1.6311321258544922,1.0
116,1,116,1,1,-0.11836682066851183,1.803666924360489,1.2342391860804502,0.652824293097709,1.563132175511263,2.772132635116577,1.0
117,1,117,1,-1,1.1058145216177035,1.803666924360489,1.2342391860804502,0.652824293097709,1.563132175511263,1.837132215499878,1.0
118,1,118,1,-1,-2.069600323384299,1.803666924360489,1.2342391860804502,0.652824293097709,1.563132175511263,1.8981313705444336,1.0
119,1,119,-1,-1,0.5707493043724329,1.6327800905493606,1.2342391860804502,0.652824293097709,1.563132175511263,1.7921324968338013,1.0
120,1,120,1,1,1.2695287415064933,1.803666924360489,1.2342391860804502,0.652824293097709,1.563132175511263,1.707132339477539,1.0
121,1,121,1,1,1.943261750418448,1.803666924360489,1.2342391860804502,0.652824293097709,1.563132175511263,1.7831324338912964,1.0
122,1,122,1,1,0.2091235634052554,1.803666924360489,1.2342391860804502,0.652824293097709,1.563132175511263,1.744132399559021,1.0
123,1,123,-1,1,0.2755086901480972,1.6327800905493606,1.2342391860804502,0.652824293097709,1.563132175511263,1.7531323432922363,1.0
124,1,124,-1,-1,0.450473624861489,1.6327800905493606,1.2342391860804502,0.652824293097709,1.563132175511263,1.7271323204040527,1.0
125,1,125,1,1,0.518792677903546,1.803666924360489,1.2342391860804502,0.652824293097709,1.563132175511263,1.6691322326660156,1.0
126,1,126,-1,1,-0.9247317008585694,1.6327800905493606,1.2342391860804502,0.652824293097709,1.563132175511263,2.0391294956207275,1.0
127,1,127,1,1,0.04780865413763748,1.803666924360489,1.2342391860804502,0.652824293097709,1.563132175511263,1.677132248878479,1.0
128,1,128,1,-1,0.39866816991209864,1.803666924360489,1.2342391860804502,0.652824293097709,1.563132175511263,1.9201310873031616,1.0
129,1,129,-1,-1,1.0297381603314384,1.6327800905493606,1.2342391860804502,0.652824293097709,1.563132175511263,1.860131859779358,1.0
130,1,130,-1,-1,-0.3303920416015663,1.6327800905493606,1.2342391860804502,0.652824293097709,1.563132175511263,2.8121345043182373,1.0
131,1,131,-1,1,0.7515795159864147,1.6327800905493606,1.2342391860804502,0.652824293097709,1.563132175511263,1.678132176399231,1.0
132,1,132,-1,1,-0.17978658911554773,1.6327800905493606,1.2342391860804502,0.652824293097709,1.563132175511263,2.4631242752075195,1.0
133,1,133,-1,1,-2.035088363836444,1.6327800905493606,1.2342391860804502,0.652824293097709,1.563132175511263,2.0811290740966797,1.0
134,1,134,-1,-1,0.5410340204548056,1.6327800905493606,1.2342391860804502,0.652824293097709,1.563132175511263,1.7201323509216309,1.0
135,1,135,1,1,-2.165773558039212,1.803666924360489,1.2342391860804502,0.652824293097709,1.563132175511263,1.7801324129104614,1.0
136,1,136,1,-1,-0.36130555920630675,1.803666924360489,1.2342391860804502,0.652824293097709,1.563132175511263,1.8971314430236816,1.0
137,1,137,1,-1,-0.9882246320038789,1.803666924360489,1.2342391860804502,0.652824293097709,1.563132175511263,2.0541293621063232,1.0
138,1,138,-1,-1,0.051399651460457704,1.6327800905493606,1.2342391860804502,0.652824293097709,1.563132175511263,1.907131314277649,1.0
139,1,139,1,-1,-1.856734305342866,1.803666924360489,1.2342391860804502,0.652824293097709,1.563132175511263,1.778132438659668,1.0
140,1,140,1,-1,-0.10496456002007576,1.803666924360489,1.2342391860804502,0.652824293097709,1.563132175511263,2.213127374649048,1.0
141,1,141,-1,-1,-2.0779097259688553,1.6327800905493606,1.2342391860804502,0.652824293097709,1.563132175511263,1.7931324243545532,1.0
142,1,142,-1,1,0.9200223944979465,1.6327800905493606,1.2342391860804502,0.652824293097709,1.563132175511263,2.070129156112671,1.0
143,1,143,-1,1,0.14806860581458745,1.6327800905493606,1.2342391860804502,0.652824293097709,1.563132175511263,1.7301323413848877,1.0
144,1,144,-1,-1,0.7525637456105291,1.6327800905493606,1.2342391860804502,0.652824293097709,1.563132175511263,1.8131325244903564,1.0
145,1,145,1,1,-0.697988025444665,1.803666924360489,1.2342391860804502,0.652824293097709,1.563132175511263,1.9061312675476074,1.0
146,1,146,-1,1,1.139825154087606,1.6327800905493606,1.2342391860804502,0.652824293097709,1.563132175511263,2.4071249961853027,1.0
147,1,147,-1,-1,-1.2944048281971603,1.6327800905493606,1.2342391860804502,0.652824293097709,1.563132175511263,2.16212797164917,1.0
148,1,148,1,-1,-1.1000072531316736,1.803666924360489,1.2342391860804502,0.652824293097709,1.563132175511263,2.304126262664795,1.0
149,1,149,1,-1,0.3852939180348628,1.803666924360489,1.2342391860804502,0.652824293097709,1.563132175511263,1.6701321601867676,1.0
150,1,150,1,1,-0.8444827187399254,1.803666924360489,1.2342391860804502,0.652824293097709,1.563132175511263,1.7651324272155762,1.0
151,1,151,-1,-1,0.09968072149105021,1.6327800905493606,1.2342391860804502,0.652824293097709,1.563132175511263,2.697129249572754,1.0
152,1,152,1,1,-0.49636251778166174,1.803666924360489,1.2342391860804502,0.652824293097709,1.563132175511263,1.9451308250427246,1.0
153,1,153,-1,1,-0.8014599582680586,1.6327800905493606,1.2342391860804502,0.652824293097709,1.563132175511263,2.1301283836364746,1.0
154,1,154,-1,-1,-0.5985288429951676,1.6327800905493606,1.2342391860804502,0.652824293097709,1.563132175511263,1.6901322603225708,1.0
155,1,155,1,1,0.8255316325476679,1.803666924360489,1.2342391860804502,0.652824293097709,1.563132175511263,1.7871325016021729,1.0
156,1,156,-1,1,-1.335255479415358,1.6327800905493606,1.2342391860804502,0.652824293097709,1.563132175511263,2.0381295680999756,1.0
157,1,157,-1,-1,0.4946678527445094,1.6327800905493606,1.2342391860804502,0.652824293097709,1.563132175511263,1.9321309328079224,1.0
158,1,158,1,1,-0.9905727836704659,1.803666924360489,1.2342391860804502,0.652824293097709,1.563132175511263,1.7511323690414429,1.0
159,1,159,1,1,0.7982021750525296,1.803666924360489,1.2342391860804502,0.652824293097709,1.563132175511263,1.705132246017456,1.0
160,1,160,1,1,-0.46650196230606855,1.803666924360489,1.2342391860804502,0.652824293097709,1.563132175511263,1.7571324110031128,1.0
161,1,161,1,-1,0.3396126413249289,1.803666924360489,1.2342391860804502,0.652824293097709,1.563132175511263,1.9561306238174438,1.0
162,1,162,1,1,0.4532499965893853,1.803666924360489,1.2342391860804502,0.652824293097709,1.563132175511263,2.5821237564086914,1.0
163,1,163,-1,-1,-0.7319439269305971,1.6327800905493606,1.2342391860804502,0.652824293097709,1.563132175511263,1.705132246017456,1.0
164,1,164,1,-1,0.21788119158417302,1.803666924360489,1.2342391860804502,0.652824293097709,1.563132175511263,2.5111236572265625,1.0
165,1,165,-1,1,1.288279042882327,1.6327800905493606,1.2342391860804502,0.652824293097709,1.563132175511263,2.0831289291381836,1.0
166,1,166,-1,1,-0.5251835424855831,1.6327800905493606,1.2342391860804502,0.652824293097709,1.563132175511263,1.9501307010650635,1.0
167,1,167,-1,1,-0.8431248913333186,1.6327800905493606,1.2342391860804502,0.652824293097709,1.563132175511263,1.856131911277771,1.0
168,1,168,1,1,1.7468396602510212,1.803666924360489,1.2342391860804502,0.652824293097709,1.563132175511263,1.8711317777633667,1.0
169,1,169,-1,1,0.06333950731284844,1.6327800905493606,1.2342391860804502,0.652824293097709,1.563132175511263,2.2831263542175293,1.0
170,1,170,1,-1,-0.05756745319677282,1.803666924360489,1.2342391860804502,0.652824293097709,1.563132175511263,1.8281322717666626,1.0
171,1,171,1,-1,-0.07273573007903003,1.803666924360489,1.2342391860804502,0.652824293097709,1.563132175511263,1.8681317567825317,1.0
172,1,172,-1,-1,-0.26276746326536704,1.6327800905493606,1.2342391860804502,0.652824293097709,1.563132175511263,2.1391282081604004,1.0
173,1,173,-1,1,-1.3054983616559,1.6327800905493606,1.2342391860804502,0.652824293097709,1.563132175511263,1.9641305208206177,1.0
174,1,174,-1,-1,-0.1979457789292351,1.6327800905493606,1.2342391860804502,0.652824293097709,1.563132175511263,1.9231311082839966,1.0
175,1,175,-1,1,-1.601180656437342,1.6327800905493606,1.2342391860804502,0.652824293097709,1.563132175511263,1.8641318082809448,1.0
176,1,176,-1,-1,-0.9328250847243661,1.6327800905493606,1.2342391860804502,0.652824293097709,1.563132175511263,1.6071321964263916,1.0
177,1,177,-1,1,1.0435439406016196,1.6327800905493606,1.2342391860804502,0.652824293097709,1.563132175511263,2.1321284770965576,1.0
178,1,178,-1,-1,0.09595626140206952,1.6327800905493606,1.2342391860804502,0.652824293097709,1.563132175511263,1.9421308040618896,1.0
179,1,179,1,-1,-1.6711189630871364,1.803666924360489,1.2342391860804502,0.652824293097709,1.563132175511263,2.8241350650787354,1.0
180,1,180,1,-1,-0.9755510449268351,1.803666924360489,1.2342391860804502,0.652824293097709,1.563132175511263,1.6611322164535522,1.0
181,1,181,1,1,0.16288909267409196,1.803666924360489,1.2342391860804502,0.652824293097709,1.563132175511263,2.1371283531188965,1.0
182,1,182,-1,1,0.3884802850854515,1.6327800905493606,1.2342391860804502,0.652824293097709,1.563132175511263,1.6291321516036987,1.0
183,1,183,1,-1,1.331001848639486,1.803666924360489,1.2342391860804502,0.652824293097709,1.563132175511263,3.232154130935669,1.0
184,1,184,1,1,0.5284785411123832,1.803666924360489,1.2342391860804502,0.652824293097709,1.563132175511263,2.215127468109131,1.0
185,1,185,-1,1,-1.2498464977207249,1.6327800905493606,1.2342391860804502,0.652824293097709,1.563132175511263,1.996130108833313,1.0
186,1,186,1,-1,-1.1868949339922001,1.803666924360489,1.2342391860804502,0.652824293097709,1.563132175511263,1.9661304950714111,1.0
187,1,187,1,1,1.1378860021242656,1.803666924360489,1.2342391860804502,0.652824293097709,1.563132175511263,1.805132508277893,1.0
188,1,188,-1,-1,-1.3758905420156091,1.6327800905493606,1.2342391860804502,0.652824293097709,1.563132175511263,2.3361258506774902,1.0
189,1,189,-1,1,0.47606686632278017,1.6327800905493606,1.2342391860804502,0.652824293097709,1.563132175511263,1.7511323690414429,1.0
190,1,190,1,1,-1.7632203814936993,1.803666924360489,1.2342391860804502,0.652824293097709,1.563132175511263,2.0021300315856934,1.0
191,1,191,-1,-1,0.7892226248424942,1.6327800905493606,1.2342391860804502,0.652824293097709,1.563132175511263,1.641132116317749,1.0
192,1,192,-1,1,-1.1938106344555128,1.6327800905493606,1.2342391860804502,0.652824293097709,1.563132175511263,1.974130392074585,1.0
193,1,193,1,-1,0.6422660079083241,1.803666924360489,1.2342391860804502,0.652824293097709,1.563132175511263,2.9071388244628906,1.0
194,1,194,-1,-1,-0.8404665623486095,1.6327800905493606,1.2342391860804502,0.652824293097709,1.563132175511263,2.0381295680999756,1.0
195,1,195,1,-1,-1.2883938253507004,1.803666924360489,1.2342391860804502,0.652824293097709,1.563132175511263,1.8931314945220947,1.0
196,1,196,-1,-1,0.2854279542763405,1.6327800905493606,1.2342391860804502,0.652824293097709,1.563132175511263,1.8621318340301514,1.0
197,1,197,-1,-1,-1.3175710138972365,1.6327800905493606,1.2342391860804502,0.652824293097709,1.563132175511263,3.7951526641845703,1.0
198,1,198,-1,-1,-0.06063932972581994,1.6327800905493606,1.2342391860804502,0.652824293097709,1.563132175511263,1.8461320400238037,1.0
199,1,199,-1,-1,-0.7441901568766086,1.6327800905493606,1.2342391860804502,0.652824293097709,1.563132175511263,1.7251323461532593,1.0
200,1,200,1,-1,-0.026040118163434156,1.803666924360489,1.2342391860804502,0.652824293097709,1.563132175511263,2.071129322052002,1.0
201,1,201,1,-1,0.3027679147301019,1.803666924360489,1.2342391860804502,0.652824293097709,1.563132175511263,2.4031248092651367,1.0
202,1,202,1,1,-0.6170379771034169,1.803666924360489,1.2342391860804502,0.652824293097709,1.563132175511263,2.306126117706299,1.0
203,1,203,1,-1,0.11574469033365643,1.803666924360489,1.2342391860804502,0.652824293097709,1.563132175511263,3.214153289794922,1.0
204,1,204,-1,1,-1.1893955767824418,1.6327800905493606,1.2342391860804502,0.652824293097709,1.563132175511263,2.3781251907348633,1.0
205,1,205,1,1,-1.2710525946996452,1.803666924360489,1.2342391860804502,0.652824293097709,1.563132175511263,2.1261284351348877,1.0
206,1,206,-1,-1,-0.8883488089091335,1.6327800905493606,1.2342391860804502,0.652824293097709,1.563132175511263,1.7491323947906494,1.0
207,1,207,-1,1,2.0207836965038593,1.6327800905493606,1.2342391860804502,0.652824293097709,1.563132175511263,1.7701324224472046,1.0
208,1,208,-1,-1,-0.09145469180996242,1.6327800905493606,1.2342391860804502,0.652824293097709,1.563132175511263,2.4681241512298584,1.0
209,1,209,1,-1,0.9508393420922812,1.803666924360489,1.2342391860804502,0.652824293097709,1.563132175511263,1.715132236480713,1.0
210,1,210,-1,1,-0.12250627348454794,1.6327800905493606,1.2342391860804502,0.652824293097709,1.563132175511263,2.3361258506774902,1.0
211,1,211,1,1,0.1863310400151178,1.803666924360489,1.2342391860804502,0.652824293097709,1.563132175511263,1.6461321115493774,1.0
212,1,212,1,1,-0.8766717487989605,1.803666924360489,1.2342391860804502,0.652824293097709,1.563132175511263,1.8651318550109863,1.0
213,1,213,1,1,-0.3183673802969829,1.803666924360489,1.2342391860804502,0.652824293097709,1.563132175511263,2.0351295471191406,1.0
214,1,214,-1,1,0.45420063196322824,1.6327800905493606,1.2342391860804502,0.652824293097709,1.563132175511263,1.859131932258606,1.0
215,1,215,-1,1,1.0864822890812096,1.6327800905493606,1.2342391860804502,0.652824293097709,1.563132175511263,1.852131962776184,1.0
216,1,216,1,-1,-1.8428685113589514,1.803666924360489,1.2342391860804502,0.652824293097709,1.563132175511263,2.255126953125,1.0
217,1,217,1,1,0.30224066326766064,1.803666924360489,1.2342391860804502,0.652824293097709,1.563132175511263,2.069129228591919,1.0
218,1,218,1,1,-1.0298231482757205,1.803666924360489,1.2342391860804502,0.652824293097709,1.563132175511263,2.6871285438537598,1.0
219,1,219,-1,-1,0.39070629011007074,1.6327800905493606,1.2342391860804502,0.652824293097709,1.563132175511263,2.6031246185302734,1.0
220,1,220,-1,-1,0.09239365645304344,1.6327800905493606,1.2342391860804502,0.652824293097709,1.563132175511263,2.390125036239624,1.0
221,1,221,1,-1,0.44466281923450635,1.803666924360489,1.2342391860804502,0.652824293097709,1.563132175511263,2.977142333984375,1.0
222,1,222,-1,1,-0.6192652904785602,1.6327800905493606,1.2342391860804502,0.652824293097709,1.563132175511263,2.1451282501220703,1.0
223,1,223,-1,1,-0.25418334345499355,1.6327800905493606,1.2342391860804502,0.652824293097709,1.563132175511263,1.812132477760315,1.0
224,1,224,1,1,1.284127145921487,1.803666924360489,1.2342391860804502,0.652824293097709,1.563132175511263,2.159128189086914,1.0
225,1,225,-1,1,-0.411326261972641,1.6327800905493606,1.2342391860804502,0.652824293097709,1.563132175511263,2.6301259994506836,1.0
226,1,226,-1,-1,0.863606922886076,1.6327800905493606,1.2342391860804502,0.652824293097709,1.563132175511263,2.208127498626709,1.0
227,1,227,-1,1,0.8247209144746293,1.6327800905493606,1.2342391860804502,0.652824293097709,1.563132175511263,1.9831303358078003,1.0
228,1,228,-1,1,-0.536632306002491,1.6327800905493606,1.2342391860804502,0.652824293097709,1.563132175511263,2.2651267051696777,1.0
229,1,229,1,-1,1.2691917820567682,1.803666924360489,1.2342391860804502,0.652824293097709,1.563132175511263,2.0501294136047363,1.0
230,1,230,1,1,0.2575541840698933,1.803666924360489,1.2342391860804502,0.652824293097709,1.563132175511263,1.778132438659668,1.0
231,1,231,-1,1,-0.8811796778633406,1.6327800905493606,1.2342391860804502,0.652824293097709,1.563132175511263,2.156128168106079,1.0
232,1,232,1,1,-1.188045148621822,1.803666924360489,1.2342391860804502,0.652824293097709,1.563132175511263,1.778132438659668,1.0
233,1,233,-1,1,-0.2685860990429174,1.6327800905493606,1.2342391860804502,0.652824293097709,1.563132175511263,2.060129404067993,1.0
234,1,234,1,-1,-0.02841585101670456,1.803666924360489,1.2342391860804502,0.652824293097709,1.563132175511263,2.4641242027282715,1.0
235,1,235,-1,-1,-1.4893497536577136,1.6327800905493606,1.2342391860804502,0.652824293097709,1.563132175511263,1.784132480621338,1.0
236,1,236,-1,-1,-0.18024251991790952,1.6327800905493606,1.2342391860804502,0.652824293097709,1.563132175511263,2.384125232696533,1.0
237,1,237,1,1,2.281312512348317,1.803666924360489,1.2342391860804502,0.652824293097709,1.563132175511263,1.9941301345825195,1.0
238,1,238,-1,-1,1.4105284986648314,1.6327800905493606,1.2342391860804502,0.652824293097709,1.563132175511263,2.207127571105957,1.0
239,1,239,-1,-1,0.5335502339503455,1.6327800905493606,1.2342391860804502,0.652824293097709,1.563132175511263,2.4131247997283936,1.0
240,1,240,1,-1,-0.3300165274200255,1.803666924360489,1.2342391860804502,0.652824293097709,1.563132175511263,2.6871285438537598,1.0
241,1,241,-1,1,1.0304068347042366,1.6327800905493606,1.2342391860804502,0.652824293097709,1.563132175511263,3.5991668701171875,1.0
242,1,242,-1,1,2.1529421307411525,1.6327800905493606,1.2342391860804502,0.652824293097709,1.563132175511263,2.5211234092712402,1.0
243,1,243,-1,-1,-0.3715421639818764,1.6327800905493606,1.2342391860804502,0.652824293097709,1.563132175511263,2.0971288681030273,1.0
244,1,244,1,-1,1.2493682091346032,1.803666924360489,1.2342391860804502,0.652824293097709,1.563132175511263,1.8351322412490845,1.0
245,1,245,-1,1,1.804690226549716,1.6327800905493606,1.2342391860804502,0.652824293097709,1.563132175511263,2.205127477645874,1.0
246,1,246,1,1,2.066039053848992,1.803666924360489,1.2342391860804502,0.652824293097709,1.563132175511263,2.11612868309021,1.0
247,1,247,-1,-1,-1.0979841375856334,1.6327800905493606,1.2342391860804502,0.652824293097709,1.563132175511263,1.748132348060608,1.0
248,1,248,-1,-1,-0.3114637465835748,1.6327800905493606,1.2342391860804502,0.652824293097709,1.563132175511263,1.996130108833313,1.0
249,1,249,-1,1,-0.14944635564626468,1.6327800905493606,1.2342391860804502,0.652824293097709,1.563132175511263,1.6761322021484375,1.0
250,1,250,-1,-1,0.4468783317969549,1.6327800905493606,1.2342391860804502,0.652824293097709,1.563132175511263,2.4151248931884766,1.0
251,1,251,1,1,0.24768844898323839,1.803666924360489,1.2342391860804502,0.652824293097709,1.563132175511263,2.024129867553711,1.0
252,1,252,-1,1,0.2118560420795998,1.6327800905493606,1.2342391860804502,0.652824293097709,1.563132175511263,1.7191323041915894,1.0
253,1,253,1,1,-1.1797699216110582,1.803666924360489,1.2342391860804502,0.652824293097709,1.563132175511263,2.0481295585632324,1.0
254,1,254,-1,1,-0.7189354096710073,1.6327800905493606,1.2342391860804502,0.652824293097709,1.563132175511263,1.6631321907043457,1.0
255,1,255,-1,-1,-1.359022302188926,1.6327800905493606,1.2342391860804502,0.652824293097709,1.563132175511263,1.7871325016021729,1.0
256,1,256,1,1,-0.529914716484769,1.803666924360489,1.2342391860804502,0.652824293097709,1.563132175511263,1.7191323041915894,1.0
257,1,257,1,1,-0.1677589030128377,1.803666924360489,1.2342391860804502,0.652824293097709,1.563132175511263,1.7871325016021729,1.0
258,1,258,1,1,-0.05080586873464675,1.803666924360489,1.2342391860804502,0.652824293097709,1.563132175511263,2.0801291465759277,1.0
259,1,259,1,1,0.322461934349701,1.803666924360489,1.2342391860804502,0.652824293097709,1.563132175511263,1.9141311645507812,1.0
260,1,260,-1,-1,0.502677004815907,1.6327800905493606,1.2342391860804502,0.652824293097709,1.563132175511263,2.4101247787475586,1.0
261,1,261,-1,1,1.0581212809913412,1.6327800905493606,1.2342391860804502,0.652824293097709,1.563132175511263,2.102128744125366,1.0
262,1,262,1,1,-1.5179069390325948,1.803666924360489,1.2342391860804502,0.652824293097709,1.563132175511263,2.791133403778076,1.0
263,1,263,-1,-1,-0.027726376983671044,1.6327800905493606,1.2342391860804502,0.652824293097709,1.563132175511263,1.8731317520141602,1.0
264,1,264,1,-1,-1.9117373145326926,1.803666924360489,1.2342391860804502,0.652824293097709,1.563132175511263,2.726130485534668,1.0
265,1,265,1,-1,1.06862520342353,1.803666924360489,1.2342391860804502,0.652824293097709,1.563132175511263,2.0311295986175537,1.0
266,1,266,-1,-1,-2.2930807919077307,1.6327800905493606,1.2342391860804502,0.652824293097709,1.563132175511263,1.8071324825286865,1.0
267,1,267,1,-1,-0.640826658962986,1.803666924360489,1.2342391860804502,0.652824293097709,1.563132175511263,2.9351401329040527,1.0
268,1,268,1,1,-0.005129940227486668,1.803666924360489,1.2342391860804502,0.652824293097709,1.563132175511263,1.7961324453353882,1.0
269,1,269,1,1,2.2670464536492676,1.803666924360489,1.2342391860804502,0.652824293097709,1.563132175511263,2.1881277561187744,1.0
270,1,270,1,1,-0.5836313008452292,1.803666924360489,1.2342391860804502,0.652824293097709,1.563132175511263,1.904131293296814,1.0
271,1,271,1,1,0.4699335399081948,1.803666924360489,1.2342391860804502,0.652824293097709,1.563132175511263,1.8961313962936401,1.0
272,1,272,1,1,-0.24764808697048418,1.803666924360489,1.2342391860804502,0.652824293097709,1.563132175511263,2.108128786087036,1.0
273,1,273,1,1,0.8083751338862185,1.803666924360489,1.2342391860804502,0.652824293097709,1.563132175511263,3.5771684646606445,1.0
274,1,274,-1,1,-1.6539275733152707,1.6327800905493606,1.2342391860804502,0.652824293097709,1.563132175511263,1.771132469177246,1.0
275,1,275,1,1,-0.37102753802925204,1.803666924360489,1.2342391860804502,0.652824293097709,1.563132175511263,1.8641318082809448,1.0
276,1,276,-1,1,-0.30849042678312916,1.6327800905493606,1.2342391860804502,0.652824293097709,1.563132175511263,2.242126941680908,1.0
277,1,277,-1,1,-1.083803583269897,1.6327800905493606,1.2342391860804502,0.652824293097709,1.563132175511263,2.6681277751922607,1.0
278,1,278,1,-1,-0.7538056413962475,1.803666924360489,1.2342391860804502,0.652824293097709,1.563132175511263,1.7031322717666626,1.0
279,1,279,1,1,0.5272748056154025,1.803666924360489,1.2342391860804502,0.652824293097709,1.563132175511263,1.8511320352554321,1.0
280,1,280,-1,1,-0.288462872016743,1.6327800905493606,1.2342391860804502,0.652824293097709,1.563132175511263,2.0071299076080322,1.0
281,1,281,1,1,-0.08341338338805011,1.803666924360489,1.2342391860804502,0.652824293097709,1.563132175511263,1.7561323642730713,1.0
282,1,282,-1,-1,-0.6123557801922821,1.6327800905493606,1.2342391860804502,0.652824293097709,1.563132175511263,2.385125160217285,1.0
283,1,283,1,-1,-0.3612863292344661,1.803666924360489,1.2342391860804502,0.652824293097709,1.563132175511263,1.995130181312561,1.0
284,1,284,1,1,-2.2532128695786864,1.803666924360489,1.2342391860804502,0.652824293097709,1.563132175511263,1.8361321687698364,1.0
285,1,285,-1,-1,-1.671691113733815,1.6327800905493606,1.2342391860804502,0.652824293097709,1.563132175511263,2.021129846572876,1.0
286,1,286,-1,-1,-0.20375378282649043,1.6327800905493606,1.2342391860804502,0.652824293097709,1.563132175511263,3.80515193939209,1.0
287,1,287,1,-1,-0.2836977645133447,1.803666924360489,1.2342391860804502,0.652824293097709,1.563132175511263,1.9981300830841064,1.0
288,1,288,-1,-1,0.7602829753998606,1.6327800905493606,1.2342391860804502,0.652824293097709,1.563132175511263,1.6931322813034058,1.0
289,1,289,1,1,-1.6262625466824239,1.803666924360489,1.2342391860804502,0.652824293097709,1.563132175511263,2.3781251907348633,1.0
290,1,290,-1,-1,1.4895486486890157,1.6327800905493606,1.2342391860804502,0.652824293097709,1.563132175511263,2.157128095626831,1.0
291,1,291,1,-1,-1.4044742760099809,1.803666924360489,1.2342391860804502,0.652824293097709,1.563132175511263,2.0501294136047363,1.0
292,1,292,-1,-1,-1.285995458579378,1.6327800905493606,1.2342391860804502,0.652824293097709,1.563132175511263,2.072129249572754,1.0
293,1,293,1,1,1.109510197732109,1.803666924360489,1.2342391860804502,0.652824293097709,1.563132175511263,2.4071249961853027,1.0
294,1,294,-1,1,1.2706510218482971,1.6327800905493606,1.2342391860804502,0.652824293097709,1.563132175511263,2.4191246032714844,0.0
295,1,295,-1,-1,1.2193652742749108,1.6327800905493606,1.2342391860804502,0.652824293097709,1.563132175511263,1.717132329940796,1.0
296,1,296,-1,-1,0.09559004903694536,1.6327800905493606,1.2342391860804502,0.652824293097709,1.563132175511263,1.9121311902999878,1.0
297,1,297,1,-1,1.0162262971236364,1.803666924360489,1.2342391860804502,0.652824293097709,1.563132175511263,2.2691266536712646,1.0
298,1,298,1,-1,1.9073873770168877,1.803666924360489,1.2342391860804502,0.652824293097709,1.563132175511263,1.7241322994232178,1.0
299,1,299,-1,1,-0.16167543976336846,1.6327800905493606,1.2342391860804502,0.652824293097709,1.563132175511263,1.8621318340301514,1.0
300,1,300,-1,-1,-0.33964281442002553,1.6327800905493606,1.2342391860804502,0.652824293097709,1.563132175511263,1.885131597518921,1.0
301,1,301,1,-1,1.113135454986801,1.803666924360489,1.2342391860804502,0.652824293097709,1.563132175511263,1.9081312417984009,1.0
302,1,302,1,-1,1.1871951211227634,1.803666924360489,1.2342391860804502,0.652824293097709,1.563132175511263,1.7011322975158691,1.0
303,1,303,-1,-1,0.6479743309056808,1.6327800905493606,1.2342391860804502,0.652824293097709,1.563132175511263,1.852131962776184,1.0
304,1,304,1,1,-0.5075012207094088,1.803666924360489,1.2342391860804502,0.652824293097709,1.563132175511263,2.6211256980895996,0.0
305,1,305,1,1,0.3416716045477588,1.803666924360489,1.2342391860804502,0.652824293097709,1.563132175511263,1.8751317262649536,1.0
306,1,306,1,-1,-0.6847959994714549,1.803666924360489,1.2342391860804502,0.652824293097709,1.563132175511263,2.247127056121826,1.0
307,1,307,1,1,0.12438570740225624,1.803666924360489,1.2342391860804502,0.652824293097709,1.563132175511263,3.538168430328369,1.0
308,1,308,1,1,-0.8484364552029324,1.803666924360489,1.2342391860804502,0.652824293097709,1.563132175511263,2.0371296405792236,1.0
309,1,309,-1,1,0.3597158739981409,1.6327800905493606,1.2342391860804502,0.652824293097709,1.563132175511263,1.7031322717666626,1.0
310,1,310,-1,-1,-0.25635946856886604,1.6327800905493606,1.2342391860804502,0.652824293097709,1.563132175511263,2.350125551223755,1.0
311,1,311,-1,-1,-0.4088592443835923,1.6327800905493606,1.2342391860804502,0.652824293097709,1.563132175511263,2.1741278171539307,1.0
312,1,312,-1,1,0.7640381722955558,1.6327800905493606,1.2342391860804502,0.652824293097709,1.563132175511263,2.8061342239379883,1.0
313,1,313,-1,1,1.838822049441767,1.6327800905493606,1.2342391860804502,0.652824293097709,1.563132175511263,1.7201323509216309,1.0
314,1,314,1,1,-1.4995242816164924,1.803666924360489,1.2342391860804502,0.652824293097709,1.563132175511263,1.6931322813034058,1.0
315,1,315,-1,-1,0.35738079332439954,1.6327800905493606,1.2342391860804502,0.652824293097709,1.563132175511263,1.9231311082839966,1.0
316,1,316,1,-1,-0.09335898761756922,1.803666924360489,1.2342391860804502,0.652824293097709,1.563132175511263,1.7551324367523193,1.0
317,1,317,1,1,-0.052243032321960384,1.803666924360489,1.2342391860804502,0.652824293097709,1.563132175511263,3.6381640434265137,1.0
318,1,318,-1,1,0.07770618045046557,1.6327800905493606,1.2342391860804502,0.652824293097709,1.563132175511263,2.2181272506713867,1.0
319,1,319,-1,-1,1.1843959832101574,1.6327800905493606,1.2342391860804502,0.652824293097709,1.563132175511263,1.8751317262649536,1.0
320,1,320,1,1,-0.027573960692266017,1.803666924360489,1.2342391860804502,0.652824293097709,1.563132175511263,1.81513249874115,1.0
321,1,321,-1,1,-2.4584453271826723,1.6327800905493606,1.2342391860804502,0.652824293097709,1.563132175511263,1.7211322784423828,1.0
322,1,322,-1,1,-0.6317514540565459,1.6327800905493606,1.2342391860804502,0.652824293097709,1.563132175511263,2.0341296195983887,1.0
323,1,323,-1,-1,-0.8969008118134598,1.6327800905493606,1.2342391860804502,0.652824293097709,1.563132175511263,2.3261258602142334,1.0
324,1,324,1,1,-1.870714485829084,1.803666924360489,1.2342391860804502,0.652824293097709,1.563132175511263,1.7521324157714844,1.0
325,1,325,-1,1,-1.4376225529509892,1.6327800905493606,1.2342391860804502,0.652824293097709,1.563132175511263,2.776132822036743,1.0
326,1,326,-1,-1,-1.3444157769391487,1.6327800905493606,1.2342391860804502,0.652824293097709,1.563132175511263,1.9911302328109741,1.0
327,1,327,-1,1,1.4668602698517506,1.6327800905493606,1.2342391860804502,0.652824293097709,1.563132175511263,1.8481320142745972,1.0
328,1,328,1,-1,-0.44570788039084136,1.803666924360489,1.2342391860804502,0.652824293097709,1.563132175511263,2.345125675201416,1.0
329,1,329,1,-1,0.872680027548965,1.803666924360489,1.2342391860804502,0.652824293097709,1.563132175511263,1.8281322717666626,1.0
330,1,330,1,1,0.38016571776423963,1.803666924360489,1.2342391860804502,0.652824293097709,1.563132175511263,1.8911315202713013,1.0
331,1,331,-1,1,-1.3151222527069895,1.6327800905493606,1.2342391860804502,0.652824293097709,1.563132175511263,1.7061322927474976,1.0
332,1,332,-1,1,0.353397798723908,1.6327800905493606,1.2342391860804502,0.652824293097709,1.563132175511263,2.076129198074341,1.0
333,1,333,-1,1,-1.3396238197484218,1.6327800905493606,1.2342391860804502,0.652824293097709,1.563132175511263,2.155128002166748,1.0
334,1,334,-1,1,-0.0893557200315999,1.6327800905493606,1.2342391860804502,0.652824293097709,1.563132175511263,1.8901314735412598,1.0
335,1,335,-1,1,0.6538602101609805,1.6327800905493606,1.2342391860804502,0.652824293097709,1.563132175511263,1.77913236618042,1.0
336,1,336,-1,-1,-0.2559105515759039,1.6327800905493606,1.2342391860804502,0.652824293097709,1.563132175511263,1.7601324319839478,1.0
337,1,337,1,1,0.04559315504271422,1.803666924360489,1.2342391860804502,0.652824293097709,1.563132175511263,2.011129856109619,1.0
338,1,338,1,1,-0.48151711000992625,1.803666924360489,1.2342391860804502,0.652824293097709,1.563132175511263,1.784132480621338,1.0
339,1,339,-1,-1,-0.13488579798033595,1.6327800905493606,1.2342391860804502,0.652824293097709,1.563132175511263,2.3601255416870117,1.0
340,1,340,-1,1,-0.4250304845053956,1.6327800905493606,1.2342391860804502,0.652824293097709,1.563132175511263,1.772132396697998,1.0
341,1,341,-1,1,-0.72292829198723,1.6327800905493606,1.2342391860804502,0.652824293097709,1.563132175511263,2.1331284046173096,1.0
342,1,342,-1,-1,0.7121217870883689,1.6327800905493606,1.2342391860804502,0.652824293097709,1.563132175511263,3.761155128479004,1.0
343,1,343,1,1,1.0273682516556044,1.803666924360489,1.2342391860804502,0.652824293097709,1.563132175511263,2.0961289405822754,1.0
344,1,344,1,1,-0.5402519049906074,1.803666924360489,1.2342391860804502,0.652824293097709,1.563132175511263,3.1181488037109375,1.0
345,1,345,-1,1,1.5638807195162168,1.6327800905493606,1.2342391860804502,0.652824293097709,1.563132175511263,2.3221259117126465,1.0
346,1,346,1,1,0.5952533001191735,1.803666924360489,1.2342391860804502,0.652824293097709,1.563132175511263,1.6521321535110474,1.0
347,1,347,1,1,1.7362555348577597,1.803666924360489,1.2342391860804502,0.652824293097709,1.563132175511263,2.017129898071289,1.0
348,1,348,1,1,1.68214816389748,1.803666924360489,1.2342391860804502,0.652824293097709,1.563132175511263,2.695128917694092,1.0
349,1,349,-1,1,0.1368966552323757,1.6327800905493606,1.2342391860804502,0.652824293097709,1.563132175511263,2.4081249237060547,1.0
350,1,350,-1,1,1.3302932069844904,1.6327800905493606,1.2342391860804502,0.652824293097709,1.563132175511263,1.7931324243545532,1.0
351,1,351,-1,1,0.5814875643824974,1.6327800905493606,1.2342391860804502,0.652824293097709,1.563132175511263,1.8941314220428467,1.0
352,1,352,-1,1,-1.2833885640580132,1.6327800905493606,1.2342391860804502,0.652824293097709,1.563132175511263,1.830132246017456,1.0
353,1,353,1,-1,-0.13527445133727425,1.803666924360489,1.2342391860804502,0.652824293097709,1.563132175511263,1.6571321487426758,1.0
354,1,354,-1,1,0.17390912932062444,1.6327800905493606,1.2342391860804502,0.652824293097709,1.563132175511263,2.158128023147583,1.0
355,1,355,-1,1,0.67885983735147,1.6327800905493606,1.2342391860804502,0.652824293097709,1.563132175511263,1.6681321859359741,1.0
356,1,356,1,1,-1.3825287428981279,1.803666924360489,1.2342391860804502,0.652824293097709,1.563132175511263,1.7431323528289795,1.0
357,1,357,1,1,0.38450679346722466,1.803666924360489,1.2342391860804502,0.652824293097709,1.563132175511263,1.7641323804855347,1.0
358,1,358,-1,-1,-1.6226172714607539,1.6327800905493606,1.2342391860804502,0.652824293097709,1.563132175511263,1.969130516052246,1.0
359,1,359,-1,-1,-0.19495348511483412,1.6327800905493606,1.2342391860804502,0.652824293097709,1.563132175511263,1.8861315250396729,1.0
360,1,360,-1,-1,1.2576738887595182,1.6327800905493606,1.2342391860804502,0.652824293097709,1.563132175511263,1.9611306190490723,1.0
361,1,361,-1,1,1.3821842641486781,1.6327800905493606,1.2342391860804502,0.652824293097709,1.563132175511263,1.7191323041915894,1.0
362,1,362,-1,-1,0.6820583884210766,1.6327800905493606,1.2342391860804502,0.652824293097709,1.563132175511263,1.8351322412490845,1.0
363,1,363,1,-1,1.0519479229930069,1.803666924360489,1.2342391860804502,0.652824293097709,1.563132175511263,2.105128765106201,1.0
364,1,364,1,-1,1.8975686383431987,1.803666924360489,1.2342391860804502,0.652824293097709,1.563132175511263,2.8381357192993164,1.0
365,1,365,1,-1,0.05594549486783608,1.803666924360489,1.2342391860804502,0.652824293097709,1.563132175511263,1.97713041305542,1.0
366,1,366,-1,1,-1.0531667869595511,1.6327800905493606,1.2342391860804502,0.652824293097709,1.563132175511263,1.9451308250427246,1.0
367,1,367,-1,1,-0.7301527123313577,1.6327800905493606,1.2342391860804502,0.652824293097709,1.563132175511263,1.7471323013305664,1.0
368,1,368,-1,1,1.4505136974320703,1.6327800905493606,1.2342391860804502,0.652824293097709,1.563132175511263,1.8961313962936401,1.0
369,1,369,-1,-1,0.5061791130696028,1.6327800905493606,1.2342391860804502,0.652824293097709,1.563132175511263,1.9981300830841064,1.0
370,1,370,-1,-1,0.8294993646217969,1.6327800905493606,1.2342391860804502,0.652824293097709,1.563132175511263,2.5171234607696533,1.0
371,1,371,-1,-1,-1.0046262484444546,1.6327800905493606,1.2342391860804502,0.652824293097709,1.563132175511263,2.028129816055298,1.0
372,1,372,1,-1,0.8967542792371883,1.803666924360489,1.2342391860804502,0.652824293097709,1.563132175511263,1.8431321382522583,1.0
373,1,373,1,1,0.5717160928643337,1.803666924360489,1.2342391860804502,0.652824293097709,1.563132175511263,1.7401323318481445,1.0
374,1,374,1,-1,-0.5434494567668572,1.803666924360489,1.2342391860804502,0.652824293097709,1.563132175511263,1.717132329940796,1.0
375,1,375,-1,-1,0.4221558772413485,1.6327800905493606,1.2342391860804502,0.652824293097709,1.563132175511263,2.0821290016174316,1.0
376,1,376,-1,-1,0.006036487960160472,1.6327800905493606,1.2342391860804502,0.652824293097709,1.563132175511263,1.8101325035095215,1.0
377,1,377,-1,1,-1.9181027631705143,1.6327800905493606,1.2342391860804502,0.652824293097709,1.563132175511263,1.9811303615570068,1.0
378,1,378,-1,-1,-0.8103629146502594,1.6327800905493606,1.2342391860804502,0.652824293097709,1.563132175511263,1.881131649017334,1.0
379,1,379,1,-1,-0.3010768127709283,1.803666924360489,1.2342391860804502,0.652824293097709,1.563132175511263,1.8951314687728882,1.0
380,1,380,1,1,0.340756778204357,1.803666924360489,1.2342391860804502,0.652824293097709,1.563132175511263,1.6851322650909424,1.0
381,1,381,-1,-1,-1.2866245229933473,1.6327800905493606,1.2342391860804502,0.652824293097709,1.563132175511263,1.7331323623657227,1.0
382,1,382,-1,-1,-0.5467009927505038,1.6327800905493606,1.2342391860804502,0.652824293097709,1.563132175511263,1.8001325130462646,1.0
383,1,383,1,-1,1.3353838134930975,1.803666924360489,1.2342391860804502,0.652824293097709,1.563132175511263,1.8631318807601929,1.0
384,1,384,-1,-1,-0.639579514068536,1.6327800905493606,1.2342391860804502,0.652824293097709,1.563132175511263,2.8841378688812256,1.0
385,1,385,1,1,-1.3209405758139956,1.803666924360489,1.2342391860804502,0.652824293097709,1.563132175511263,1.715132236480713,1.0
386,1,386,-1,1,1.598560101562389,1.6327800905493606,1.2342391860804502,0.652824293097709,1.563132175511263,1.77913236618042,1.0
387,1,387,-1,-1,-0.39393000587336746,1.6327800905493606,1.2342391860804502,0.652824293097709,1.563132175511263,2.1941275596618652,1.0
388,1,388,1,1,-1.2387577487679473,1.803666924360489,1.2342391860804502,0.652824293097709,1.563132175511263,1.969130516052246,1.0
389,1,389,-1,-1,0.214263941717035,1.6327800905493606,1.2342391860804502,0.652824293097709,1.563132175511263,1.8111324310302734,1.0
390,1,390,-1,1,-0.7816824988583745,1.6327800905493606,1.2342391860804502,0.652824293097709,1.563132175511263,2.05812931060791,1.0
391,1,391,-1,1,-1.5063013124590816,1.6327800905493606,1.2342391860804502,0.652824293097709,1.563132175511263,1.9541306495666504,1.0
392,1,392,1,-1,-0.7980285570574474,1.803666924360489,1.2342391860804502,0.652824293097709,1.563132175511263,1.8791316747665405,1.0
393,1,393,-1,1,1.194665500554968,1.6327800905493606,1.2342391860804502,0.652824293097709,1.563132175511263,1.855131983757019,1.0
394,1,394,1,-1,1.9637120173249174,1.803666924360489,1.2342391860804502,0.652824293097709,1.563132175511263,1.8461320400238037,1.0
395,1,395,-1,1,-0.3664230373405993,1.6327800905493606,1.2342391860804502,0.652824293097709,1.563132175511263,2.8541364669799805,1.0
396,1,396,1,1,-2.3207056543827362,1.803666924360489,1.2342391860804502,0.652824293097709,1.563132175511263,1.741132378578186,1.0
397,1,397,-1,-1,-0.21324074410281202,1.6327800905493606,1.2342391860804502,0.652824293097709,1.563132175511263,1.9911302328109741,1.0
398,1,398,1,1,0.6177434999268868,1.803666924360489,1.2342391860804502,0.652824293097709,1.563132175511263,2.247127056121826,1.0
399,1,399,-1,1,0.32238768016064023,1.6327800905493606,1.2342391860804502,0.652824293097709,1.563132175511263,2.3691253662109375,1.0
400,1,400,-1,-1,0.44891636431862847,1.6327800905493606,1.2342391860804502,0.652824293097709,1.563132175511263,1.8421320915222168,1.0
401,1,401,-1,-1,0.10774037255364348,1.6327800905493606,1.2342391860804502,0.652824293097709,1.563132175511263,1.860131859779358,1.0
402,1,402,-1,-1,-1.1663470229616892,1.6327800905493606,1.2342391860804502,0.652824293097709,1.563132175511263,1.8471320867538452,1.0
403,1,403,-1,-1,-0.8505159393652962,1.6327800905493606,1.2342391860804502,0.652824293097709,1.563132175511263,1.7221323251724243,1.0
404,1,404,-1,1,1.4681703828785766,1.6327800905493606,1.2342391860804502,0.652824293097709,1.563132175511263,2.198127508163452,1.0
405,1,405,-1,-1,-0.6634212486293849,1.6327800905493606,1.2342391860804502,0.652824293097709,1.563132175511263,1.9591306447982788,1.0
406,1,406,1,-1,-0.9189476058939334,1.803666924360489,1.2342391860804502,0.652824293097709,1.563132175511263,1.7091323137283325,1.0
407,1,407,1,1,1.2194873916752311,1.803666924360489,1.2342391860804502,0.652824293097709,1.563132175511263,1.769132375717163,1.0
408,1,408,1,-1,0.7537727043235254,1.803666924360489,1.2342391860804502,0.652824293097709,1.563132175511263,2.5681231021881104,1.0
409,1,409,-1,1,0.23268578032232318,1.6327800905493606,1.2342391860804502,0.652824293097709,1.563132175511263,1.7851324081420898,1.0
410,1,410,-1,1,2.7827981666407178,1.6327800905493606,1.2342391860804502,0.652824293097709,1.563132175511263,2.4691240787506104,1.0
411,1,411,-1,1,-0.5281837687662523,1.6327800905493606,1.2342391860804502,0.652824293097709,1.563132175511263,1.7651324272155762,1.0
412,1,412,-1,1,1.7329502444554228,1.6327800905493606,1.2342391860804502,0.652824293097709,1.563132175511263,1.7591323852539062,1.0
413,1,413,1,-1,0.355653811059887,1.803666924360489,1.2342391860804502,0.652824293097709,1.563132175511263,1.8101325035095215,1.0
414,1,414,-1,1,0.7110750746748954,1.6327800905493606,1.2342391860804502,0.652824293097709,1.563132175511263,1.8581318855285645,1.0
415,1,415,1,-1,-1.926265567582645,1.803666924360489,1.2342391860804502,0.652824293097709,1.563132175511263,1.7521324157714844,1.0
416,1,416,1,-1,-0.6710988776911034,1.803666924360489,1.2342391860804502,0.652824293097709,1.563132175511263,1.771132469177246,1.0
417,1,417,-1,-1,-0.29104043464658347,1.6327800905493606,1.2342391860804502,0.652824293097709,1.563132175511263,2.6751279830932617,1.0
418,1,418,1,-1,-0.41570326491803006,1.803666924360489,1.2342391860804502,0.652824293097709,1.563132175511263,2.2321271896362305,1.0
419,1,419,-1,1,-1.0959807115279638,1.6327800905493606,1.2342391860804502,0.652824293097709,1.563132175511263,2.1721279621124268,1.0
420,1,420,1,-1,-1.3858627657923335,1.803666924360489,1.2342391860804502,0.652824293097709,1.563132175511263,2.1461281776428223,1.0
421,1,421,-1,-1,-1.988304911837892,1.6327800905493606,1.2342391860804502,0.652824293097709,1.563132175511263,2.0331296920776367,1.0
422,1,422,-1,-1,-0.3049242303869918,1.6327800905493606,1.2342391860804502,0.652824293097709,1.563132175511263,1.6241321563720703,1.0
423,1,423,1,-1,0.23353985617703854,1.803666924360489,1.2342391860804502,0.652824293097709,1.563132175511263,1.7461323738098145,1.0
424,1,424,1,-1,1.458393586572964,1.803666924360489,1.2342391860804502,0.652824293097709,1.563132175511263,1.9811303615570068,1.0
425,1,425,1,-1,1.3407101882570858,1.803666924360489,1.2342391860804502,0.652824293097709,1.563132175511263,1.717132329940796,1.0
426,1,426,-1,-1,-0.3610385484617043,1.6327800905493606,1.2342391860804502,0.652824293097709,1.563132175511263,1.9671305418014526,1.0
427,1,427,-1,-1,0.3618330215181633,1.6327800905493606,1.2342391860804502,0.652824293097709,1.563132175511263,2.198127508163452,1.0
428,1,428,-1,-1,0.27716843747080316,1.6327800905493606,1.2342391860804502,0.652824293097709,1.563132175511263,2.1461281776428223,1.0
429,1,429,-1,1,1.4271049564234437,1.6327800905493606,1.2342391860804502,0.652824293097709,1.563132175511263,1.6861321926116943,1.0
430,1,430,1,1,-0.46544171482113816,1.803666924360489,1.2342391860804502,0.652824293097709,1.563132175511263,2.0391294956207275,1.0
431,1,431,-1,1,-1.7794349461503194,1.6327800905493606,1.2342391860804502,0.652824293097709,1.563132175511263,1.7031322717666626,1.0
432,1,432,-1,-1,0.1695586387638564,1.6327800905493606,1.2342391860804502,0.652824293097709,1.563132175511263,2.1851277351379395,1.0
433,1,433,-1,1,1.1848581570176946,1.6327800905493606,1.2342391860804502,0.652824293097709,1.563132175511263,3.26615571975708,1.0
434,1,434,1,1,-1.167958006526901,1.803666924360489,1.2342391860804502,0.652824293097709,1.563132175511263,1.7981324195861816,1.0
435,1,435,1,1,-0.685148475487269,1.803666924360489,1.2342391860804502,0.652824293097709,1.563132175511263,1.9151312112808228,1.0
436,1,436,1,-1,-1.1868409870145544,1.803666924360489,1.2342391860804502,0.652824293097709,1.563132175511263,2.2181272506713867,1.0
437,1,437,-1,1,-0.155451908513706,1.6327800905493606,1.2342391860804502,0.652824293097709,1.563132175511263,1.7821323871612549,1.0
438,1,438,1,-1,0.16288190698945493,1.803666924360489,1.2342391860804502,0.652824293097709,1.563132175511263,2.686128616333008,1.0
439,1,439,1,-1,0.6146159831364131,1.803666924360489,1.2342391860804502,0.652824293097709,1.563132175511263,2.0751290321350098,1.0
440,1,440,1,1,0.5055426918534944,1.803666924360489,1.2342391860804502,0.652824293097709,1.563132175511263,2.351125717163086,1.0
441,1,441,1,1,1.485838101413516,1.803666924360489,1.2342391860804502,0.652824293097709,1.563132175511263,1.8221323490142822,1.0
442,1,442,1,1,1.5820915658100279,1.803666924360489,1.2342391860804502,0.652824293097709,1.563132175511263,1.9321309328079224,1.0
443,1,443,-1,1,0.34473442437094726,1.6327800905493606,1.2342391860804502,0.652824293097709,1.563132175511263,1.6941322088241577,1.0
444,1,444,1,-1,0.3063464023331665,1.803666924360489,1.2342391860804502,0.652824293097709,1.563132175511263,1.7351323366165161,1.0
445,1,445,-1,-1,-0.11680409722151516,1.6327800905493606,1.2342391860804502,0.652824293097709,1.563132175511263,1.904131293296814,1.0
446,1,446,1,1,0.5546331485050235,1.803666924360489,1.2342391860804502,0.652824293097709,1.563132175511263,1.9901301860809326,1.0
447,1,447,1,-1,0.2969874940422503,1.803666924360489,1.2342391860804502,0.652824293097709,1.563132175511263,2.4601242542266846,1.0
448,1,448,1,-1,-0.3358614515318047,1.803666924360489,1.2342391860804502,0.652824293097709,1.563132175511263,3.20615291595459,1.0
449,1,449,1,1,0.4748273633006975,1.803666924360489,1.2342391860804502,0.652824293097709,1.563132175511263,2.153128147125244,1.0
450,1,450,1,1,-0.09892680594476204,1.803666924360489,1.2342391860804502,0.652824293097709,1.563132175511263,1.8071324825286865,1.0
451,1,451,-1,-1,0.05779592623126199,1.6327800905493606,1.2342391860804502,0.652824293097709,1.563132175511263,2.348125696182251,1.0
452,1,452,-1,1,2.5809577477492196,1.6327800905493606,1.2342391860804502,0.652824293097709,1.563132175511263,1.7771323919296265,1.0
453,1,453,-1,1,-0.009385146181008247,1.6327800905493606,1.2342391860804502,0.652824293097709,1.563132175511263,1.8381321430206299,1.0
454,1,454,1,-1,-1.2581510670396945,1.803666924360489,1.2342391860804502,0.652824293097709,1.563132175511263,1.7551324367523193,1.0
455,1,455,1,1,0.36047371376689047,1.803666924360489,1.2342391860804502,0.652824293097709,1.563132175511263,1.7511323690414429,1.0
456,1,456,1,1,1.1108343868599704,1.803666924360489,1.2342391860804502,0.652824293097709,1.563132175511263,2.027129650115967,1.0
457,1,457,-1,-1,-0.35496925579591604,1.6327800905493606,1.2342391860804502,0.652824293097709,1.563132175511263,1.8361321687698364,1.0
458,1,458,-1,-1,-1.0307163105868085,1.6327800905493606,1.2342391860804502,0.652824293097709,1.563132175511263,1.7831324338912964,1.0
459,1,459,1,-1,-0.37963404781386084,1.803666924360489,1.2342391860804502,0.652824293097709,1.563132175511263,2.0821290016174316,1.0
460,1,460,1,-1,0.8875280196915621,1.803666924360489,1.2342391860804502,0.652824293097709,1.563132175511263,2.0871291160583496,1.0
461,1,461,1,-1,-0.981747616338364,1.803666924360489,1.2342391860804502,0.652824293097709,1.563132175511263,1.7951323986053467,1.0
462,1,462,1,-1,-0.575228479005658,1.803666924360489,1.2342391860804502,0.652824293097709,1.563132175511263,1.9151312112808228,1.0
463,1,463,-1,-1,0.49462222386506716,1.6327800905493606,1.2342391860804502,0.652824293097709,1.563132175511263,1.80913245677948,1.0
464,1,464,-1,1,1.0718732136967388,1.6327800905493606,1.2342391860804502,0.652824293097709,1.563132175511263,1.6651321649551392,1.0
465,1,465,1,1,0.35765027211515016,1.803666924360489,1.2342391860804502,0.652824293097709,1.563132175511263,1.7161322832107544,1.0
466,1,466,1,-1,-1.1060406153869247,1.803666924360489,1.2342391860804502,0.652824293097709,1.563132175511263,2.212127447128296,1.0
467,1,467,-1,1,-0.5431777824183628,1.6327800905493606,1.2342391860804502,0.652824293097709,1.563132175511263,1.8911315202713013,1.0
468,1,468,1,1,0.4467334179133059,1.803666924360489,1.2342391860804502,0.652824293097709,1.563132175511263,2.5511231422424316,1.0
469,1,469,-1,1,0.7941785440772072,1.6327800905493606,1.2342391860804502,0.652824293097709,1.563132175511263,2.0891289710998535,1.0
470,1,470,-1,-1,-1.5976309457244133,1.6327800905493606,1.2342391860804502,0.652824293097709,1.563132175511263,1.8221323490142822,1.0
471,1,471,1,1,0.7228072062941318,1.803666924360489,1.2342391860804502,0.652824293097709,1.563132175511263,2.6291260719299316,1.0
472,1,472,-1,-1,2.3228194749718654,1.6327800905493606,1.2342391860804502,0.652824293097709,1.563132175511263,1.812132477760315,1.0
473,1,473,-1,-1,-0.008679481908941855,1.6327800905493606,1.2342391860804502,0.652824293097709,1.563132175511263,1.7771323919296265,1.0
474,1,474,-1,-1,0.615408055891137,1.6327800905493606,1.2342391860804502,0.652824293097709,1.563132175511263,1.8181324005126953,1.0
475,1,475,-1,-1,0.3689375648668135,1.6327800905493606,1.2342391860804502,0.652824293097709,1.563132175511263,1.7941324710845947,1.0
476,1,476,-1,-1,-0.11494723315323141,1.6327800905493606,1.2342391860804502,0.652824293097709,1.563132175511263,1.9121311902999878,1.0
477,1,477,-1,-1,-1.8174135904325723,1.6327800905493606,1.2342391860804502,0.652824293097709,1.563132175511263,1.8871315717697144,1.0
478,1,478,-1,1,-0.3795344555272397,1.6327800905493606,1.2342391860804502,0.652824293097709,1.563132175511263,1.7521324157714844,1.0
479,1,479,-1,1,0.02906089867444897,1.6327800905493606,1.2342391860804502,0.652824293097709,1.563132175511263,2.6101250648498535,1.0
480,1,480,-1,-1,-0.03141532728217164,1.6327800905493606,1.2342391860804502,0.652824293097709,1.563132175511263,2.260126829147339,1.0
481,1,481,-1,1,1.0277080384174142,1.6327800905493606,1.2342391860804502,0.652824293097709,1.563132175511263,1.781132459640503,1.0
482,1,482,-1,-1,-1.2082879374161017,1.6327800905493606,1.2342391860804502,0.652824293097709,1.563132175511263,1.860131859779358,1.0
483,1,483,-1,1,1.3879667780299443,1.6327800905493606,1.2342391860804502,0.652824293097709,1.563132175511263,2.760132074356079,1.0
484,1,484,1,-1,-1.1802202393862506,1.803666924360489,1.2342391860804502,0.652824293097709,1.563132175511263,2.065129280090332,1.0
485,1,485,1,1,-1.4252057240141554,1.803666924360489,1.2342391860804502,0.652824293097709,1.563132175511263,1.771132469177246,1.0
486,1,486,-1,-1,-0.10528681563763898,1.6327800905493606,1.2342391860804502,0.652824293097709,1.563132175511263,2.0051300525665283,1.0
487,1,487,-1,1,-0.20871815063880111,1.6327800905493606,1.2342391860804502,0.652824293097709,1.563132175511263,2.022129774093628,1.0
488,1,488,-1,-1,-1.0446984832653634,1.6327800905493606,1.2342391860804502,0.652824293097709,1.563132175511263,1.995130181312561,1.0
489,1,489,1,-1,0.300168402299967,1.803666924360489,1.2342391860804502,0.652824293097709,1.563132175511263,1.885131597518921,1.0
490,1,490,1,1,-0.4302179461132676,1.803666924360489,1.2342391860804502,0.652824293097709,1.563132175511263,1.9751304388046265,1.0
491,1,491,1,1,-0.8842578762371025,1.803666924360489,1.2342391860804502,0.652824293097709,1.563132175511263,2.0961289405822754,1.0
492,1,492,1,-1,-0.3541678635389055,1.803666924360489,1.2342391860804502,0.652824293097709,1.563132175511263,2.01213002204895,1.0
493,1,493,1,1,-0.37091916827210836,1.803666924360489,1.2342391860804502,0.652824293097709,1.563132175511263,2.1481282711029053,1.0
494,1,494,-1,1,-0.08907302690527978,1.6327800905493606,1.2342391860804502,0.652824293097709,1.563132175511263,2.2281272411346436,1.0
495,1,495,1,-1,-1.1406918607648702,1.803666924360489,1.2342391860804502,0.652824293097709,1.563132175511263,1.8241323232650757,1.0
496,1,496,1,-1,-0.5271964951103273,1.803666924360489,1.2342391860804502,0.652824293097709,1.563132175511263,1.805132508277893,1.0
497,1,497,-1,1,0.2260398024712877,1.6327800905493606,1.2342391860804502,0.652824293097709,1.563132175511263,2.060129404067993,1.0
498,1,498,1,1,-0.538282333746038,1.803666924360489,1.2342391860804502,0.652824293097709,1.563132175511263,1.7581323385238647,1.0
499,1,499,-1,-1,0.8360806871536061,1.6327800905493606,1.2342391860804502,0.652824293097709,1.563132175511263,2.1511282920837402,1.0
500,1,500,-1,1,0.14921072031029017,1.6327800905493606,1.2342391860804502,0.652824293097709,1.563132175511263,2.1001288890838623,1.0
501,1,501,-1,-1,0.08553410324412698,1.6327800905493606,1.2342391860804502,0.652824293097709,1.563132175511263,2.742131233215332,1.0
502,1,502,-1,-1,-0.17814527500689786,1.6327800905493606,1.2342391860804502,0.652824293097709,1.563132175511263,2.35312557220459,1.0
503,1,503,1,1,-0.27048165712026195,1.803666924360489,1.2342391860804502,0.652824293097709,1.563132175511263,1.7851324081420898,1.0
504,1,504,-1,1,2.65782917300404,1.6327800905493606,1.2342391860804502,0.652824293097709,1.563132175511263,2.2381269931793213,1.0
505,1,505,1,-1,0.06476760846879427,1.803666924360489,1.2342391860804502,0.652824293097709,1.563132175511263,2.201127529144287,1.0
506,1,506,-1,-1,-0.5009913294378854,1.6327800905493606,1.2342391860804502,0.652824293097709,1.563132175511263,2.1931276321411133,1.0
507,1,507,1,-1,0.7137823709264548,1.803666924360489,1.2342391860804502,0.652824293097709,1.563132175511263,1.829132318496704,1.0
508,1,508,1,-1,-0.3669105246325381,1.803666924360489,1.2342391860804502,0.652824293097709,1.563132175511263,1.6731321811676025,1.0
509,1,509,1,-1,0.4168998592209793,1.803666924360489,1.2342391860804502,0.652824293097709,1.563132175511263,1.784132480621338,1.0
510,1,510,-1,-1,-1.637114199131575,1.6327800905493606,1.2342391860804502,0.652824293097709,1.563132175511263,2.4231247901916504,1.0
511,1,511,1,-1,-1.1263208646876681,1.803666924360489,1.2342391860804502,0.652824293097709,1.563132175511263,2.1381282806396484,1.0
512,1,512,-1,-1,-1.6764962784844069,1.6327800905493606,1.2342391860804502,0.652824293097709,1.563132175511263,1.9861302375793457,1.0
513,1,513,-1,-1,0.5309841186709201,1.6327800905493606,1.2342391860804502,0.652824293097709,1.563132175511263,1.772132396697998,1.0
514,1,514,1,-1,-0.024415965024627354,1.803666924360489,1.2342391860804502,0.652824293097709,1.563132175511263,2.1311283111572266,1.0
515,1,515,-1,-1,-2.193121873817738,1.6327800905493606,1.2342391860804502,0.652824293097709,1.563132175511263,1.7771323919296265,1.0
516,1,516,-1,1,0.7421619464016879,1.6327800905493606,1.2342391860804502,0.652824293097709,1.563132175511263,2.4521243572235107,1.0
517,1,517,1,1,0.7379816690714471,1.803666924360489,1.2342391860804502,0.652824293097709,1.563132175511263,2.2141273021698,1.0
518,1,518,-1,-1,-1.0209511581219612,1.6327800905493606,1.2342391860804502,0.652824293097709,1.563132175511263,1.8241323232650757,1.0
519,1,519,-1,-1,0.6383137154746036,1.6327800905493606,1.2342391860804502,0.652824293097709,1.563132175511263,1.8171324729919434,1.0
520,1,520,-1,-1,-1.3064330994469278,1.6327800905493606,1.2342391860804502,0.652824293097709,1.563132175511263,1.7961324453353882,1.0
521,1,521,1,-1,0.2506583151082074,1.803666924360489,1.2342391860804502,0.652824293097709,1.563132175511263,2.3141260147094727,1.0
522,1,522,-1,1,-0.6348399873742772,1.6327800905493606,1.2342391860804502,0.652824293097709,1.563132175511263,1.8511320352554321,1.0
523,1,523,1,1,0.26837367216194313,1.803666924360489,1.2342391860804502,0.652824293097709,1.563132175511263,2.0441296100616455,1.0
524,1,524,1,1,1.1685244736163578,1.803666924360489,1.2342391860804502,0.652824293097709,1.563132175511263,2.446124315261841,1.0
525,1,525,1,-1,-0.8608317276673264,1.803666924360489,1.2342391860804502,0.652824293097709,1.563132175511263,1.8971314430236816,1.0
526,1,526,-1,-1,0.7998859160748356,1.6327800905493606,1.2342391860804502,0.652824293097709,1.563132175511263,1.8191324472427368,1.0
527,1,527,1,-1,-1.0559676036960068,1.803666924360489,1.2342391860804502,0.652824293097709,1.563132175511263,2.0991287231445312,1.0
528,1,528,-1,-1,0.8076421592447078,1.6327800905493606,1.2342391860804502,0.652824293097709,1.563132175511263,2.3101260662078857,1.0
529,1,529,1,1,-0.49280826096624886,1.803666924360489,1.2342391860804502,0.652824293097709,1.563132175511263,1.8641318082809448,1.0
530,1,530,1,-1,2.2396738784174137,1.803666924360489,1.2342391860804502,0.652824293097709,1.563132175511263,1.9821302890777588,1.0
531,1,531,-1,1,1.212786075866983,1.6327800905493606,1.2342391860804502,0.652824293097709,1.563132175511263,1.7101322412490845,1.0
532,1,532,1,-1,-0.177798187230589,1.803666924360489,1.2342391860804502,0.652824293097709,1.563132175511263,1.8001325130462646,1.0
533,1,533,-1,-1,-0.7317427986395617,1.6327800905493606,1.2342391860804502,0.652824293097709,1.563132175511263,1.7901324033737183,1.0
534,1,534,-1,-1,1.5588485537875052,1.6327800905493606,1.2342391860804502,0.652824293097709,1.563132175511263,1.8861315250396729,1.0
535,1,535,-1,-1,0.12841449647340009,1.6327800905493606,1.2342391860804502,0.652824293097709,1.563132175511263,3.3531599044799805,1.0
536,1,536,1,1,-0.1065784335216043,1.803666924360489,1.2342391860804502,0.652824293097709,1.563132175511263,1.8941314220428467,1.0
537,1,537,1,-1,0.3143511584176273,1.803666924360489,1.2342391860804502,0.652824293097709,1.563132175511263,2.0961289405822754,1.0
538,1,538,1,1,0.43361417776094013,1.803666924360489,1.2342391860804502,0.652824293097709,1.563132175511263,1.741132378578186,1.0
539,1,539,-1,1,1.3096928053099393,1.6327800905493606,1.2342391860804502,0.652824293097709,1.563132175511263,2.158128023147583,1.0
540,1,540,1,1,-0.1878178615430115,1.803666924360489,1.2342391860804502,0.652824293097709,1.563132175511263,1.8481320142745972,1.0
541,1,541,-1,1,-1.3790182353993958,1.6327800905493606,1.2342391860804502,0.652824293097709,1.563132175511263,1.6611322164535522,1.0
542,1,542,1,1,-1.0225966423145096,1.803666924360489,1.2342391860804502,0.652824293097709,1.563132175511263,1.7761324644088745,1.0
543,1,543,-1,1,1.6335195494586343,1.6327800905493606,1.2342391860804502,0.652824293097709,1.563132175511263,1.837132215499878,1.0
544,1,544,1,-1,0.7882436152591646,1.803666924360489,1.2342391860804502,0.652824293097709,1.563132175511263,1.9931302070617676,1.0
545,1,545,-1,-1,0.1821345062969289,1.6327800905493606,1.2342391860804502,0.652824293097709,1.563132175511263,2.1421282291412354,1.0
546,1,546,1,-1,0.2082917076010326,1.803666924360489,1.2342391860804502,0.652824293097709,1.563132175511263,1.8941314220428467,1.0
547,1,547,1,1,1.976749670711983,1.803666924360489,1.2342391860804502,0.652824293097709,1.563132175511263,2.293126344680786,1.0
548,1,548,-1,1,-0.1888746600701165,1.6327800905493606,1.2342391860804502,0.652824293097709,1.563132175511263,1.8311322927474976,1.0
549,1,549,-1,1,0.6034343943083103,1.6327800905493606,1.2342391860804502,0.652824293097709,1.563132175511263,1.6791322231292725,1.0
550,1,550,1,-1,0.9578350133111331,1.803666924360489,1.2342391860804502,0.652824293097709,1.563132175511263,1.859131932258606,1.0
551,1,551,-1,1,0.8744683783497077,1.6327800905493606,1.2342391860804502,0.652824293097709,1.563132175511263,1.9321309328079224,1.0
552,1,552,1,-1,0.2181016480193157,1.803666924360489,1.2342391860804502,0.652824293097709,1.563132175511263,2.8581366539001465,1.0
553,1,553,1,1,-1.9168543139789638,1.803666924360489,1.2342391860804502,0.652824293097709,1.563132175511263,1.8651318550109863,1.0
554,1,554,-1,-1,-1.21929709535896,1.6327800905493606,1.2342391860804502,0.652824293097709,1.563132175511263,1.7921324968338013,1.0
555,1,555,-1,1,0.37562272280656994,1.6327800905493606,1.2342391860804502,0.652824293097709,1.563132175511263,3.017144203186035,1.0
556,1,556,1,-1,0.502500710690027,1.803666924360489,1.2342391860804502,0.652824293097709,1.563132175511263,1.77913236618042,1.0
557,1,557,1,1,1.3623619085505643,1.803666924360489,1.2342391860804502,0.652824293097709,1.563132175511263,2.295126438140869,1.0
558,1,558,1,1,0.23890623038606218,1.803666924360489,1.2342391860804502,0.652824293097709,1.563132175511263,1.9361308813095093,1.0
559,1,559,-1,1,0.06639595805940948,1.6327800905493606,1.2342391860804502,0.652824293097709,1.563132175511263,1.8451321125030518,1.0
560,1,560,1,1,0.4005282245412023,1.803666924360489,1.2342391860804502,0.652824293097709,1.563132175511263,1.852131962776184,1.0
561,1,561,-1,1,-0.30789005125486246,1.6327800905493606,1.2342391860804502,0.652824293097709,1.563132175511263,1.7551324367523193,1.0
562,1,562,1,-1,0.6762386375674687,1.803666924360489,1.2342391860804502,0.652824293097709,1.563132175511263,2.1791276931762695,1.0
563,1,563,-1,1,1.3008064878013454,1.6327800905493606,1.2342391860804502,0.652824293097709,1.563132175511263,1.8211324214935303,1.0
564,1,564,1,-1,-1.496346007794612,1.803666924360489,1.2342391860804502,0.652824293097709,1.563132175511263,1.7401323318481445,1.0
565,1,565,-1,-1,0.8605638117474214,1.6327800905493606,1.2342391860804502,0.652824293097709,1.563132175511263,2.5191235542297363,1.0
566,1,566,-1,-1,-1.6480833981769343,1.6327800905493606,1.2342391860804502,0.652824293097709,1.563132175511263,3.026144504547119,1.0
567,1,567,1,-1,-0.8093757724856068,1.803666924360489,1.2342391860804502,0.652824293097709,1.563132175511263,2.0491294860839844,1.0
568,1,568,-1,-1,1.3422233769548773,1.6327800905493606,1.2342391860804502,0.652824293097709,1.563132175511263,1.9431308507919312,1.0
569,1,569,1,-1,-0.019944264940589776,1.803666924360489,1.2342391860804502,0.652824293097709,1.563132175511263,1.7311322689056396,1.0
570,1,570,1,1,0.21905059935221577,1.803666924360489,1.2342391860804502,0.652824293097709,1.563132175511263,1.6631321907043457,1.0
571,1,571,1,-1,0.7184543066943025,1.803666924360489,1.2342391860804502,0.652824293097709,1.563132175511263,2.8621368408203125,1.0
572,1,572,1,1,0.41272945032144615,1.803666924360489,1.2342391860804502,0.652824293097709,1.563132175511263,1.6851322650909424,1.0
573,1,573,1,1,0.9989821839371404,1.803666924360489,1.2342391860804502,0.652824293097709,1.563132175511263,2.199127674102783,1.0
574,1,574,1,-1,-0.44789535423488813,1.803666924360489,1.2342391860804502,0.652824293097709,1.563132175511263,1.7091323137283325,1.0
575,1,575,1,-1,2.2483659353837466,1.803666924360489,1.2342391860804502,0.652824293097709,1.563132175511263,3.042145252227783,1.0
576,1,576,1,-1,0.5126393036792578,1.803666924360489,1.2342391860804502,0.652824293097709,1.563132175511263,1.8111324310302734,1.0
577,1,577,1,1,0.33594692304196205,1.803666924360489,1.2342391860804502,0.652824293097709,1.563132175511263,2.783133029937744,1.0
578,1,578,1,-1,0.9329162836493843,1.803666924360489,1.2342391860804502,0.652824293097709,1.563132175511263,1.6891322135925293,1.0
579,1,579,1,1,1.0179077843363613,1.803666924360489,1.2342391860804502,0.652824293097709,1.563132175511263,1.9861302375793457,1.0
580,1,580,1,1,-1.2017967017624152,1.803666924360489,1.2342391860804502,0.652824293097709,1.563132175511263,2.6621274948120117,1.0
581,1,581,1,-1,-0.602727064335624,1.803666924360489,1.2342391860804502,0.652824293097709,1.563132175511263,1.7061322927474976,1.0
582,1,582,1,-1,1.6504879299232205,1.803666924360489,1.2342391860804502,0.652824293097709,1.563132175511263,2.250126838684082,1.0
583,1,583,1,1,0.6660441774977954,1.803666924360489,1.2342391860804502,0.652824293097709,1.563132175511263,1.8041324615478516,1.0
584,1,584,1,1,0.7176689733491853,1.803666924360489,1.2342391860804502,0.652824293097709,1.563132175511263,1.8921314477920532,1.0
585,1,585,-1,1,0.24990307993666083,1.6327800905493606,1.2342391860804502,0.652824293097709,1.563132175511263,1.9191311597824097,1.0
586,1,586,1,1,-0.6773228173835142,1.803666924360489,1.2342391860804502,0.652824293097709,1.563132175511263,1.8451321125030518,1.0
587,1,587,-1,-1,0.9847776167022022,1.6327800905493606,1.2342391860804502,0.652824293097709,1.563132175511263,1.830132246017456,1.0
588,1,588,-1,-1,-0.37417646460192494,1.6327800905493606,1.2342391860804502,0.652824293097709,1.563132175511263,1.9391309022903442,1.0
589,1,589,-1,-1,1.4775960265095396,1.6327800905493606,1.2342391860804502,0.652824293097709,1.563132175511263,2.1711277961730957,1.0
590,1,590,-1,-1,-0.9366007413897165,1.6327800905493606,1.2342391860804502,0.652824293097709,1.563132175511263,2.5131235122680664,1.0
591,1,591,-1,-1,-0.28792273558953746,1.6327800905493606,1.2342391860804502,0.652824293097709,1.563132175511263,2.1891276836395264,1.0
592,1,592,-1,-1,-1.0460043417751235,1.6327800905493606,1.2342391860804502,0.652824293097709,1.563132175511263,1.744132399559021,1.0
593,1,593,1,-1,-0.731893613896273,1.803666924360489,1.2342391860804502,0.652824293097709,1.563132175511263,2.0481295585632324,1.0
594,1,594,1,1,-1.0428167908515988,1.803666924360489,1.2342391860804502,0.652824293097709,1.563132175511263,2.4041249752044678,1.0
595,1,595,-1,-1,0.4850895665096113,1.6327800905493606,1.2342391860804502,0.652824293097709,1.563132175511263,2.698129177093506,1.0
596,1,596,1,-1,-0.9459958553882591,1.803666924360489,1.2342391860804502,0.652824293097709,1.563132175511263,2.0771291255950928,1.0
597,1,597,1,-1,-0.5270715513370238,1.803666924360489,1.2342391860804502,0.652824293097709,1.563132175511263,2.430124521255493,1.0
598,1,598,-1,-1,-1.2722581654078955,1.6327800905493606,1.2342391860804502,0.652824293097709,1.563132175511263,2.3341257572174072,1.0
599,1,599,-1,-1,0.7313701430372399,1.6327800905493606,1.2342391860804502,0.652824293097709,1.563132175511263,1.9941301345825195,1.0
600,1,600,1,-1,0.48364084819944897,1.803666924360489,1.2342391860804502,0.652824293097709,1.563132175511263,2.4141247272491455,1.0
601,1,601,1,-1,1.3355506426425516,1.803666924360489,1.2342391860804502,0.652824293097709,1.563132175511263,2.295126438140869,1.0
602,1,602,1,-1,1.1342431961913941,1.803666924360489,1.2342391860804502,0.652824293097709,1.563132175511263,2.242126941680908,1.0
603,1,603,-1,1,-2.2261107636358135,1.6327800905493606,1.2342391860804502,0.652824293097709,1.563132175511263,1.6701321601867676,1.0
604,1,604,1,-1,-2.459080098655587,1.803666924360489,1.2342391860804502,0.652824293097709,1.563132175511263,1.8201323747634888,1.0
605,1,605,1,-1,-0.4640493870636056,1.803666924360489,1.2342391860804502,0.652824293097709,1.563132175511263,1.8221323490142822,1.0
606,1,606,-1,1,1.6309115676491723,1.6327800905493606,1.2342391860804502,0.652824293097709,1.563132175511263,1.6931322813034058,1.0
607,1,607,1,-1,-1.5934625598705758,1.803666924360489,1.2342391860804502,0.652824293097709,1.563132175511263,1.7011322975158691,1.0
608,1,608,-1,1,2.221268452085492,1.6327800905493606,1.2342391860804502,0.652824293097709,1.563132175511263,1.8951314687728882,1.0
609,1,609,1,-1,0.13089006181527701,1.803666924360489,1.2342391860804502,0.652824293097709,1.563132175511263,1.8581318855285645,1.0
610,1,610,1,1,-0.1757421086785279,1.803666924360489,1.2342391860804502,0.652824293097709,1.563132175511263,1.784132480621338,1.0
611,1,611,1,-1,-0.22546534161724835,1.803666924360489,1.2342391860804502,0.652824293097709,1.563132175511263,1.9821302890777588,1.0
612,1,612,1,1,1.1263830431378061,1.803666924360489,1.2342391860804502,0.652824293097709,1.563132175511263,1.8391321897506714,1.0
613,1,613,1,1,1.4627947873455633,1.803666924360489,1.2342391860804502,0.652824293097709,1.563132175511263,1.7591323852539062,1.0
614,1,614,1,1,-0.11817310812446431,1.803666924360489,1.2342391860804502,0.652824293097709,1.563132175511263,2.0391294956207275,1.0
615,1,615,1,-1,-0.4849351487522554,1.803666924360489,1.2342391860804502,0.652824293097709,1.563132175511263,2.298126220703125,1.0
616,1,616,1,1,-1.3101636587043741,1.803666924360489,1.2342391860804502,0.652824293097709,1.563132175511263,3.520167589187622,1.0
617,1,617,-1,1,0.977933545092548,1.6327800905493606,1.2342391860804502,0.652824293097709,1.563132175511263,2.0951290130615234,1.0
618,1,618,1,-1,-1.130477456848146,1.803666924360489,1.2342391860804502,0.652824293097709,1.563132175511263,2.8581366539001465,1.0
619,1,619,1,-1,-0.8480806613573967,1.803666924360489,1.2342391860804502,0.652824293097709,1.563132175511263,2.164128065109253,1.0
620,1,620,-1,1,-1.497685290143052,1.6327800905493606,1.2342391860804502,0.652824293097709,1.563132175511263,3.0561459064483643,1.0
621,1,621,-1,1,-0.3574989685789851,1.6327800905493606,1.2342391860804502,0.652824293097709,1.563132175511263,1.771132469177246,1.0
622,1,622,1,-1,1.2145579306064118,1.803666924360489,1.2342391860804502,0.652824293097709,1.563132175511263,1.9141311645507812,1.0
623,1,623,1,1,-0.5575428326450234,1.803666924360489,1.2342391860804502,0.652824293097709,1.563132175511263,2.790133476257324,1.0
624,1,624,-1,1,-0.558807469853162,1.6327800905493606,1.2342391860804502,0.652824293097709,1.563132175511263,3.1781516075134277,1.0
625,1,625,1,1,-1.0727481213688428,1.803666924360489,1.2342391860804502,0.652824293097709,1.563132175511263,1.6631321907043457,1.0
626,1,626,1,-1,3.457935650826102,1.803666924360489,1.2342391860804502,0.652824293097709,1.563132175511263,1.769132375717163,1.0
627,1,627,1,-1,-0.7667204933361959,1.803666924360489,1.2342391860804502,0.652824293097709,1.563132175511263,3.9201436042785645,1.0
628,1,628,1,-1,-1.898590978215257,1.803666924360489,1.2342391860804502,0.652824293097709,1.563132175511263,1.7651324272155762,1.0
629,1,629,1,-1,0.5101437315131002,1.803666924360489,1.2342391860804502,0.652824293097709,1.563132175511263,1.8501319885253906,1.0
630,1,630,-1,-1,0.13675624965621924,1.6327800905493606,1.2342391860804502,0.652824293097709,1.563132175511263,2.072129249572754,1.0
631,1,631,1,1,0.22822598074146283,1.803666924360489,1.2342391860804502,0.652824293097709,1.563132175511263,1.8711317777633667,1.0
632,1,632,1,-1,2.3845190800017155,1.803666924360489,1.2342391860804502,0.652824293097709,1.563132175511263,1.7341322898864746,1.0
633,1,633,1,-1,-0.43665080088795,1.803666924360489,1.2342391860804502,0.652824293097709,1.563132175511263,3.016144037246704,1.0
634,1,634,-1,1,0.2500079504468102,1.6327800905493606,1.2342391860804502,0.652824293097709,1.563132175511263,1.9801303148269653,1.0
635,1,635,1,1,0.04269686282331306,1.803666924360489,1.2342391860804502,0.652824293097709,1.563132175511263,1.8141324520111084,1.0
636,1,636,-1,-1,-0.8303014303291468,1.6327800905493606,1.2342391860804502,0.652824293097709,1.563132175511263,2.247127056121826,1.0
637,1,637,1,-1,-0.40504248787152175,1.803666924360489,1.2342391860804502,0.652824293097709,1.563132175511263,1.882131576538086,1.0
638,1,638,-1,-1,0.34026694268036123,1.6327800905493606,1.2342391860804502,0.652824293097709,1.563132175511263,2.2311272621154785,1.0
639,1,639,1,-1,1.5468592548922375,1.803666924360489,1.2342391860804502,0.652824293097709,1.563132175511263,2.720130205154419,1.0
640,1,640,-1,1,2.2728391391988207,1.6327800905493606,1.2342391860804502,0.652824293097709,1.563132175511263,1.8941314220428467,1.0
641,1,641,-1,1,-0.28272647261555306,1.6327800905493606,1.2342391860804502,0.652824293097709,1.563132175511263,1.7011322975158691,1.0
642,1,642,1,-1,-1.5334687331262964,1.803666924360489,1.2342391860804502,0.652824293097709,1.563132175511263,1.8491320610046387,1.0
643,1,643,-1,1,-0.910864421965357,1.6327800905493606,1.2342391860804502,0.652824293097709,1.563132175511263,1.8171324729919434,1.0
644,1,644,-1,1,-1.1747438418318665,1.6327800905493606,1.2342391860804502,0.652824293097709,1.563132175511263,2.1431283950805664,1.0
645,1,645,1,-1,0.7044198066405201,1.803666924360489,1.2342391860804502,0.652824293097709,1.563132175511263,1.8981313705444336,1.0
646,1,646,1,1,0.0051591641667492055,1.803666924360489,1.2342391860804502,0.652824293097709,1.563132175511263,1.8941314220428467,1.0
647,1,647,-1,1,0.8928142553801883,1.6327800905493606,1.2342391860804502,0.652824293097709,1.563132175511263,2.293126344680786,1.0
648,1,648,-1,1,-0.7880165182980657,1.6327800905493606,1.2342391860804502,0.652824293097709,1.563132175511263,1.7231323719024658,1.0
649,1,649,-1,1,-1.4314860185097098,1.6327800905493606,1.2342391860804502,0.652824293097709,1.563132175511263,2.252126932144165,1.0
650,1,650,1,1,-0.33538662766971905,1.803666924360489,1.2342391860804502,0.652824293097709,1.563132175511263,1.8441320657730103,1.0
651,1,651,-1,1,-0.11540416205277614,1.6327800905493606,1.2342391860804502,0.652824293097709,1.563132175511263,1.999130129814148,1.0
652,1,652,-1,1,1.0563285153357056,1.6327800905493606,1.2342391860804502,0.652824293097709,1.563132175511263,2.0061299800872803,1.0
653,1,653,1,1,-0.8373023531490214,1.803666924360489,1.2342391860804502,0.652824293097709,1.563132175511263,1.8631318807601929,1.0
654,1,654,-1,-1,0.38418447482679124,1.6327800905493606,1.2342391860804502,0.652824293097709,1.563132175511263,1.7661323547363281,1.0
655,1,655,1,1,-0.582003423736903,1.803666924360489,1.2342391860804502,0.652824293097709,1.563132175511263,1.9161311388015747,1.0
656,1,656,1,1,0.7760205957136516,1.803666924360489,1.2342391860804502,0.652824293097709,1.563132175511263,1.714132308959961,1.0
657,1,657,-1,-1,0.5830066227946009,1.6327800905493606,1.2342391860804502,0.652824293097709,1.563132175511263,2.016129970550537,1.0
658,1,658,1,-1,-1.0429456059117217,1.803666924360489,1.2342391860804502,0.652824293097709,1.563132175511263,2.3301258087158203,1.0
659,1,659,1,-1,-1.2158965654265605,1.803666924360489,1.2342391860804502,0.652824293097709,1.563132175511263,1.715132236480713,1.0
660,1,660,1,1,0.933698177337289,1.803666924360489,1.2342391860804502,0.652824293097709,1.563132175511263,2.2791266441345215,1.0
661,1,661,-1,1,-0.17634531665954323,1.6327800905493606,1.2342391860804502,0.652824293097709,1.563132175511263,1.704132318496704,1.0
662,1,662,1,1,-0.9349332488522795,1.803666924360489,1.2342391860804502,0.652824293097709,1.563132175511263,1.9941301345825195,1.0
663,1,663,-1,1,0.25205217461161333,1.6327800905493606,1.2342391860804502,0.652824293097709,1.563132175511263,2.016129970550537,1.0
664,1,664,-1,-1,-1.1432992541298528,1.6327800905493606,1.2342391860804502,0.652824293097709,1.563132175511263,1.7431323528289795,1.0
665,1,665,-1,1,-0.6903771503271737,1.6327800905493606,1.2342391860804502,0.652824293097709,1.563132175511263,1.745132327079773,1.0
666,1,666,1,1,0.9418872100587996,1.803666924360489,1.2342391860804502,0.652824293097709,1.563132175511263,3.214153289794922,1.0
667,1,667,1,1,-1.322373816365327,1.803666924360489,1.2342391860804502,0.652824293097709,1.563132175511263,1.8451321125030518,1.0
668,1,668,1,1,-0.05818319946211077,1.803666924360489,1.2342391860804502,0.652824293097709,1.563132175511263,2.1421282291412354,1.0
669,1,669,-1,-1,0.8949740125879131,1.6327800905493606,1.2342391860804502,0.652824293097709,1.563132175511263,1.784132480621338,1.0
670,1,670,-1,-1,1.5933558453667622,1.6327800905493606,1.2342391860804502,0.652824293097709,1.563132175511263,2.6101250648498535,1.0
671,1,671,-1,1,0.39055502969918604,1.6327800905493606,1.2342391860804502,0.652824293097709,1.563132175511263,1.8441320657730103,1.0
672,1,672,-1,1,1.2280939595859013,1.6327800905493606,1.2342391860804502,0.652824293097709,1.563132175511263,1.9911302328109741,1.0
673,1,673,-1,1,-0.20052505215518573,1.6327800905493606,1.2342391860804502,0.652824293097709,1.563132175511263,1.8381321430206299,1.0
674,1,674,-1,-1,-0.5663596107805906,1.6327800905493606,1.2342391860804502,0.652824293097709,1.563132175511263,2.014129877090454,1.0
675,1,675,1,-1,0.8444424051468741,1.803666924360489,1.2342391860804502,0.652824293097709,1.563132175511263,2.0831289291381836,1.0
676,1,676,-1,-1,-1.17157620359783,1.6327800905493606,1.2342391860804502,0.652824293097709,1.563132175511263,1.7981324195861816,1.0
677,1,677,-1,-1,1.119135296735871,1.6327800905493606,1.2342391860804502,0.652824293097709,1.563132175511263,2.0931289196014404,1.0
678,1,678,1,1,0.5181673189579535,1.803666924360489,1.2342391860804502,0.652824293097709,1.563132175511263,1.8401321172714233,1.0
679,1,679,-1,-1,0.23379100083147875,1.6327800905493606,1.2342391860804502,0.652824293097709,1.563132175511263,2.015129804611206,1.0
680,1,680,1,1,0.5776187445627535,1.803666924360489,1.2342391860804502,0.652824293097709,1.563132175511263,1.7301323413848877,1.0
681,1,681,1,1,-0.7793618965691379,1.803666924360489,1.2342391860804502,0.652824293097709,1.563132175511263,1.9761303663253784,1.0
682,1,682,-1,1,0.39533522549210925,1.6327800905493606,1.2342391860804502,0.652824293097709,1.563132175511263,1.859131932258606,1.0
683,1,683,1,1,1.525993014961567,1.803666924360489,1.2342391860804502,0.652824293097709,1.563132175511263,1.944130778312683,1.0
684,1,684,-1,-1,-1.1860782179185383,1.6327800905493606,1.2342391860804502,0.652824293097709,1.563132175511263,1.9141311645507812,1.0
685,1,685,1,1,-0.3673352564018095,1.803666924360489,1.2342391860804502,0.652824293097709,1.563132175511263,1.9681304693222046,1.0
686,1,686,-1,1,0.11360217032796056,1.6327800905493606,1.2342391860804502,0.652824293097709,1.563132175511263,1.9621305465698242,1.0
687,1,687,1,1,1.137319730008878,1.803666924360489,1.2342391860804502,0.652824293097709,1.563132175511263,1.8031325340270996,1.0
688,1,688,1,1,0.6245879004919539,1.803666924360489,1.2342391860804502,0.652824293097709,1.563132175511263,1.9641305208206177,1.0
689,1,689,1,-1,0.004676580927354609,1.803666924360489,1.2342391860804502,0.652824293097709,1.563132175511263,2.342125654220581,1.0
690,1,690,1,1,0.827521329530586,1.803666924360489,1.2342391860804502,0.652824293097709,1.563132175511263,1.9581305980682373,1.0
691,1,691,-1,1,0.7726628526005269,1.6327800905493606,1.2342391860804502,0.652824293097709,1.563132175511263,1.860131859779358,1.0
692,1,692,1,1,1.0843680585156608,1.803666924360489,1.2342391860804502,0.652824293097709,1.563132175511263,1.6891322135925293,1.0
693,1,693,1,-1,-0.692807027633175,1.803666924360489,1.2342391860804502,0.652824293097709,1.563132175511263,1.9461307525634766,1.0
694,1,694,1,-1,-1.5241174537120064,1.803666924360489,1.2342391860804502,0.652824293097709,1.563132175511263,2.965141773223877,1.0
695,1,695,1,-1,-0.9495575874737363,1.803666924360489,1.2342391860804502,0.652824293097709,1.563132175511263,1.708132266998291,1.0
696,1,696,-1,-1,-2.067388432468511,1.6327800905493606,1.2342391860804502,0.652824293097709,1.563132175511263,2.1281285285949707,1.0
697,1,697,1,-1,-0.37632975717572525,1.803666924360489,1.2342391860804502,0.652824293097709,1.563132175511263,1.8461320400238037,1.0
698,1,698,1,1,-0.25708108824778425,1.803666924360489,1.2342391860804502,0.652824293097709,1.563132175511263,2.159128189086914,1.0
699,1,699,-1,-1,0.20567047835591945,1.6327800905493606,1.2342391860804502,0.652824293097709,1.563132175511263,2.061129331588745,1.0
700,1,700,1,1,0.815878027871619,1.803666924360489,1.2342391860804502,0.652824293097709,1.563132175511263,2.731130599975586,1.0
701,1,701,1,-1,-1.6253176528058937,1.803666924360489,1.2342391860804502,0.652824293097709,1.563132175511263,2.529123306274414,1.0
702,1,702,-1,1,1.4606595463162744,1.6327800905493606,1.2342391860804502,0.652824293097709,1.563132175511263,1.8201323747634888,1.0
703,1,703,-1,-1,-1.1812672355283476,1.6327800905493606,1.2342391860804502,0.652824293097709,1.563132175511263,1.6991322040557861,1.0
704,1,704,1,-1,0.570272667101482,1.803666924360489,1.2342391860804502,0.652824293097709,1.563132175511263,1.7101322412490845,1.0
705,1,705,1,-1,1.8096683037920134,1.803666924360489,1.2342391860804502,0.652824293097709,1.563132175511263,1.6181321144104004,1.0
706,1,706,1,-1,-1.4149762626392557,1.803666924360489,1.2342391860804502,0.652824293097709,1.563132175511263,2.2681267261505127,1.0
707,1,707,-1,1,-0.03451609900305856,1.6327800905493606,1.2342391860804502,0.652824293097709,1.563132175511263,1.7361323833465576,1.0
708,1,708,1,1,1.0238578081274023,1.803666924360489,1.2342391860804502,0.652824293097709,1.563132175511263,3.719158172607422,1.0
709,1,709,1,1,-0.08040570538004806,1.803666924360489,1.2342391860804502,0.652824293097709,1.563132175511263,2.0051300525665283,1.0
710,1,710,1,1,0.29616739561324995,1.803666924360489,1.2342391860804502,0.652824293097709,1.563132175511263,1.9181311130523682,1.0
711,1,711,1,1,1.536758362323202,1.803666924360489,1.2342391860804502,0.652824293097709,1.563132175511263,2.2651267051696777,1.0
712,1,712,-1,1,-1.3437030989791974,1.6327800905493606,1.2342391860804502,0.652824293097709,1.563132175511263,2.015129804611206,1.0
713,1,713,-1,-1,0.11225578002880597,1.6327800905493606,1.2342391860804502,0.652824293097709,1.563132175511263,2.0401296615600586,1.0
714,1,714,-1,-1,-0.9960774042597593,1.6327800905493606,1.2342391860804502,0.652824293097709,1.563132175511263,1.9131312370300293,1.0
715,1,715,1,1,0.29334031065569705,1.803666924360489,1.2342391860804502,0.652824293097709,1.563132175511263,2.0091300010681152,1.0
716,1,716,1,1,0.6593081305910266,1.803666924360489,1.2342391860804502,0.652824293097709,1.563132175511263,1.9901301860809326,1.0
717,1,717,1,-1,1.1870558264252349,1.803666924360489,1.2342391860804502,0.652824293097709,1.563132175511263,1.8471320867538452,1.0
718,1,718,-1,1,-0.22521563223514485,1.6327800905493606,1.2342391860804502,0.652824293097709,1.563132175511263,1.9111312627792358,1.0
719,1,719,-1,1,-1.2632120312825894,1.6327800905493606,1.2342391860804502,0.652824293097709,1.563132175511263,1.7671324014663696,1.0
720,1,720,-1,-1,0.8813103384628381,1.6327800905493606,1.2342391860804502,0.652824293097709,1.563132175511263,1.6961323022842407,1.0
721,1,721,-1,-1,-0.48509075974858973,1.6327800905493606,1.2342391860804502,0.652824293097709,1.563132175511263,2.5901241302490234,1.0
722,1,722,1,-1,-0.17013129700738028,1.803666924360489,1.2342391860804502,0.652824293097709,1.563132175511263,2.3581254482269287,1.0
723,1,723,1,1,1.4431256497077074,1.803666924360489,1.2342391860804502,0.652824293097709,1.563132175511263,1.8221323490142822,1.0
724,1,724,-1,1,2.3296251457433366,1.6327800905493606,1.2342391860804502,0.652824293097709,1.563132175511263,1.8201323747634888,1.0
725,1,725,1,1,2.502994727897901,1.803666924360489,1.2342391860804502,0.652824293097709,1.563132175511263,2.6591272354125977,1.0
726,1,726,1,-1,-0.40483223596633583,1.803666924360489,1.2342391860804502,0.652824293097709,1.563132175511263,1.8261322975158691,1.0
727,1,727,-1,1,-0.14254355382943673,1.6327800905493606,1.2342391860804502,0.652824293097709,1.563132175511263,1.7191323041915894,1.0
728,1,728,1,-1,0.026517618625290132,1.803666924360489,1.2342391860804502,0.652824293097709,1.563132175511263,1.6951322555541992,1.0
729,1,729,-1,-1,-0.07652348650416381,1.6327800905493606,1.2342391860804502,0.652824293097709,1.563132175511263,2.5421230792999268,1.0
730,1,730,-1,1,0.34844118630776993,1.6327800905493606,1.2342391860804502,0.652824293097709,1.563132175511263,2.255126953125,1.0
731,1,731,1,-1,0.2516696725854216,1.803666924360489,1.2342391860804502,0.652824293097709,1.563132175511263,1.8411321640014648,1.0
732,1,732,-1,-1,-0.4196476914661578,1.6327800905493606,1.2342391860804502,0.652824293097709,1.563132175511263,1.8011324405670166,1.0
733,1,733,-1,1,-1.7266057864883584,1.6327800905493606,1.2342391860804502,0.652824293097709,1.563132175511263,2.0491294860839844,1.0
734,1,734,1,-1,-0.2447047505439332,1.803666924360489,1.2342391860804502,0.652824293097709,1.563132175511263,1.9321309328079224,1.0
735,1,735,1,1,-0.6752055861702045,1.803666924360489,1.2342391860804502,0.652824293097709,1.563132175511263,1.992130160331726,1.0
736,1,736,1,1,-0.06187798528889128,1.803666924360489,1.2342391860804502,0.652824293097709,1.563132175511263,1.92513108253479,1.0
737,1,737,1,-1,0.49333229051539884,1.803666924360489,1.2342391860804502,0.652824293097709,1.563132175511263,1.715132236480713,1.0
738,1,738,-1,-1,1.439904893941002,1.6327800905493606,1.2342391860804502,0.652824293097709,1.563132175511263,2.257126808166504,1.0
739,1,739,1,1,-0.15618502363578646,1.803666924360489,1.2342391860804502,0.652824293097709,1.563132175511263,1.6941322088241577,1.0
740,1,740,-1,1,-0.2602592395936065,1.6327800905493606,1.2342391860804502,0.652824293097709,1.563132175511263,1.714132308959961,1.0
741,1,741,1,-1,-0.3663695456341021,1.803666924360489,1.2342391860804502,0.652824293097709,1.563132175511263,2.2141273021698,1.0
742,1,742,-1,-1,-0.41059160575528936,1.6327800905493606,1.2342391860804502,0.652824293097709,1.563132175511263,1.8141324520111084,1.0
743,1,743,-1,-1,0.41185891817754683,1.6327800905493606,1.2342391860804502,0.652824293097709,1.563132175511263,1.8671318292617798,1.0
744,1,744,-1,-1,0.40156639499812297,1.6327800905493606,1.2342391860804502,0.652824293097709,1.563132175511263,2.6271257400512695,1.0
745,1,745,-1,1,1.8980135149135329,1.6327800905493606,1.2342391860804502,0.652824293097709,1.563132175511263,2.543123245239258,1.0
746,1,746,-1,1,-1.2720305600664394,1.6327800905493606,1.2342391860804502,0.652824293097709,1.563132175511263,1.8171324729919434,1.0
747,1,747,1,1,-0.9727734662209797,1.803666924360489,1.2342391860804502,0.652824293097709,1.563132175511263,2.156128168106079,1.0
748,1,748,-1,-1,-0.6672278473980798,1.6327800905493606,1.2342391860804502,0.652824293097709,1.563132175511263,2.2241272926330566,1.0
749,1,749,1,-1,-0.43205223079266336,1.803666924360489,1.2342391860804502,0.652824293097709,1.563132175511263,2.38212513923645,1.0
750,1,750,1,1,-1.1564339881966283,1.803666924360489,1.2342391860804502,0.652824293097709,1.563132175511263,1.877131700515747,1.0
751,1,751,-1,1,-0.11992319698134755,1.6327800905493606,1.2342391860804502,0.652824293097709,1.563132175511263,1.9821302890777588,1.0
752,1,752,1,-1,-0.8543630082550304,1.803666924360489,1.2342391860804502,0.652824293097709,1.563132175511263,2.3701252937316895,1.0
753,1,753,1,1,-0.9188922583703647,1.803666924360489,1.2342391860804502,0.652824293097709,1.563132175511263,1.9631305932998657,1.0
754,1,754,1,-1,1.9069987495944993,1.803666924360489,1.2342391860804502,0.652824293097709,1.563132175511263,2.703129291534424,1.0
755,1,755,1,-1,-1.105237481254699,1.803666924360489,1.2342391860804502,0.652824293097709,1.563132175511263,1.647132158279419,1.0
756,1,756,1,-1,2.1869068713054873,1.803666924360489,1.2342391860804502,0.652824293097709,1.563132175511263,1.7501323223114014,1.0
757,1,757,-1,1,1.3978533128927784,1.6327800905493606,1.2342391860804502,0.652824293097709,1.563132175511263,2.1251285076141357,1.0
758,1,758,-1,-1,0.05396287553723873,1.6327800905493606,1.2342391860804502,0.652824293097709,1.563132175511263,1.6611322164535522,1.0
759,1,759,1,1,-2.0159342774120717,1.803666924360489,1.2342391860804502,0.652824293097709,1.563132175511263,2.062129259109497,1.0
760,1,760,-1,1,1.3929316298445942,1.6327800905493606,1.2342391860804502,0.652824293097709,1.563132175511263,1.9241310358047485,1.0
761,1,761,1,1,-0.5024364084963373,1.803666924360489,1.2342391860804502,0.652824293097709,1.563132175511263,1.9391309022903442,1.0
762,1,762,1,-1,0.8678483837096548,1.803666924360489,1.2342391860804502,0.652824293097709,1.563132175511263,1.8981313705444336,1.0
763,1,763,1,1,-0.03952942904061828,1.803666924360489,1.2342391860804502,0.652824293097709,1.563132175511263,1.8891315460205078,1.0
764,1,764,-1,1,1.3050553768200908,1.6327800905493606,1.2342391860804502,0.652824293097709,1.563132175511263,1.7551324367523193,1.0
