,subj_idx,trial_idx,S,X,M,v,a,z,t,rt,response
0,1,0,-1,-1,-0.37595361094558244,1.302351471432106,1.9299299022389418,0.46754126704467325,1.5958120180969495,2.6848068237304688,1.0
1,1,1,1,1,0.2579478958580226,-0.8045851996262932,1.9299299022389418,0.39062729284402486,1.5958120180969495,3.4278416633605957,0.0
2,1,2,-1,1,0.04025574269223353,1.302351471432106,1.9299299022389418,0.3900169497534142,1.5958120180969495,2.382805347442627,1.0
3,1,3,1,1,0.538047782655362,-0.8045851996262932,1.9299299022389418,0.3914126083829702,1.5958120180969495,2.5518031120300293,0.0
4,1,4,-1,-1,0.3562273236949478,1.302351471432106,1.9299299022389418,0.46959408138839615,1.5958120180969495,2.3238062858581543,1.0
5,1,5,-1,1,-0.024854286574865547,1.302351471432106,1.9299299022389418,0.38983440088376176,1.5958120180969495,4.1468095779418945,1.0
6,1,6,1,1,0.4406596603912194,-0.8045851996262932,1.9299299022389418,0.39113956148317597,1.5958120180969495,2.8208131790161133,0.0
7,1,7,1,1,1.9087848506984348,-0.8045851996262932,1.9299299022389418,0.3952557413868814,1.5958120180969495,2.058809518814087,0.0
8,1,8,-1,-1,0.9800117020393286,1.302351471432106,1.9299299022389418,0.4713429845060174,1.5958120180969495,4.143809795379639,1.0
9,1,9,-1,1,0.7274304100141851,1.302351471432106,1.9299299022389418,0.39194358010799196,1.5958120180969495,2.5358033180236816,1.0
10,1,10,-1,-1,-2.9460318313695835,1.302351471432106,1.9299299022389418,0.46033554345127403,1.5958120180969495,3.296835422515869,1.0
11,1,11,1,1,1.238179159750867,-0.8045851996262932,1.9299299022389418,0.39337556544097907,1.5958120180969495,2.5828027725219727,0.0
12,1,12,-1,1,2.0706386170778726,1.302351471432106,1.9299299022389418,0.39570953049485974,1.5958120180969495,2.568803071975708,1.0
13,1,13,1,1,1.5051986171561542,-0.8045851996262932,1.9299299022389418,0.3941242074040258,1.5958120180969495,1.7958121299743652,0.0
14,1,14,-1,1,1.104439061683838,1.302351471432106,1.9299299022389418,0.3930005985732912,1.5958120180969495,3.2108314037323,1.0
15,1,15,1,-1,-0.2895935933870263,-0.8045851996262932,1.9299299022389418,0.46778339446752865,1.5958120180969495,2.4498045444488525,0.0
16,1,16,-1,1,1.4535286183177891,1.302351471432106,1.9299299022389418,0.39397934032303905,1.5958120180969495,6.3666486740112305,1.0
17,1,17,-1,-1,-2.099888023042562,1.302351471432106,1.9299299022389418,0.4627078752949581,1.5958120180969495,3.287835121154785,1.0
18,1,18,1,-1,-2.397157082274415,-0.8045851996262932,1.9299299022389418,0.46187442257874417,1.5958120180969495,3.272834300994873,0.0
19,1,19,-1,-1,-2.141227994559072,1.302351471432106,1.9299299022389418,0.4625919704926296,1.5958120180969495,2.420804977416992,1.0
20,1,20,-1,1,0.9895397204086054,1.302351471432106,1.9299299022389418,0.39267845550086894,1.5958120180969495,2.8528146743774414,1.0
21,1,21,-1,1,0.07566322205222953,1.302351471432106,1.9299299022389418,0.39011622163836296,1.5958120180969495,2.5498032569885254,1.0
22,1,22,-1,-1,-1.5432243775237744,1.302351471432106,1.9299299022389418,0.46426859213704724,1.5958120180969495,3.0678248405456543,1.0
23,1,23,-1,-1,0.3750383382805611,1.302351471432106,1.9299299022389418,0.4696468217954928,1.5958120180969495,2.796812057495117,1.0
24,1,24,1,-1,-2.531973799549546,-0.8045851996262932,1.9299299022389418,0.461496437195757,1.5958120180969495,6.0466718673706055,0.0
25,1,25,-1,-1,-0.8949697721008575,1.302351471432106,1.9299299022389418,0.4660861023854532,1.5958120180969495,3.3838396072387695,1.0
26,1,26,1,-1,1.2016968958558967,-0.8045851996262932,1.9299299022389418,0.47196452287737783,1.5958120180969495,2.1138088703155518,0.0
27,1,27,-1,1,1.0320666999204426,1.302351471432106,1.9299299022389418,0.3927976883153371,1.5958120180969495,2.1638083457946777,1.0
28,1,28,1,-1,-2.7661001126049576,-0.8045851996262932,1.9299299022389418,0.46084001768120203,1.5958120180969495,1.9598108530044556,0.0
29,1,29,-1,-1,-2.3546078786405493,1.302351471432106,1.9299299022389418,0.4619937177029425,1.5958120180969495,2.8298134803771973,1.0
30,1,30,1,-1,0.9047708868649822,-0.8045851996262932,1.9299299022389418,0.47113203197049536,1.5958120180969495,2.483804225921631,0.0
31,1,31,-1,-1,-2.0290313124160813,1.302351471432106,1.9299299022389418,0.46290653612459914,1.5958120180969495,2.2148075103759766,1.0
32,1,32,-1,1,-0.3466364740304462,1.302351471432106,1.9299299022389418,0.388932220754901,1.5958120180969495,2.331806182861328,1.0
33,1,33,-1,1,1.182116131205828,1.302351471432106,1.9299299022389418,0.39321838163066,1.5958120180969495,2.522803544998169,1.0
34,1,34,-1,-1,-0.5738807243641726,1.302351471432106,1.9299299022389418,0.46698633915975524,1.5958120180969495,4.9997477531433105,1.0
35,1,35,1,1,-0.1372981340383288,-0.8045851996262932,1.9299299022389418,0.38951914227483647,1.5958120180969495,2.148808479309082,0.0
36,1,36,-1,1,4.029825955485503,1.302351471432106,1.9299299022389418,0.4012025004426475,1.5958120180969495,2.389805316925049,1.0
37,1,37,-1,-1,-2.374467780071533,1.302351471432106,1.9299299022389418,0.46193803653372106,1.5958120180969495,2.474804162979126,1.0
38,1,38,1,1,0.09270022015629353,-0.8045851996262932,1.9299299022389418,0.3901639882387036,1.5958120180969495,1.914811372756958,0.0
39,1,39,-1,1,0.14801974921939653,1.302351471432106,1.9299299022389418,0.3903190875008887,1.5958120180969495,2.6298041343688965,1.0
40,1,40,1,-1,-0.9534110154909272,-0.8045851996262932,1.9299299022389418,0.46592225077853444,1.5958120180969495,2.2708067893981934,0.0
41,1,41,-1,1,0.5595711455042971,1.302351471432106,1.9299299022389418,0.3914729533959186,1.5958120180969495,2.691807270050049,1.0
42,1,42,-1,-1,-1.432586193182122,1.302351471432106,1.9299299022389418,0.46457878821158927,1.5958120180969495,4.465786457061768,1.0
43,1,43,-1,-1,-1.43905853807015,1.302351471432106,1.9299299022389418,0.4645606417100962,1.5958120180969495,2.6308043003082275,1.0
44,1,44,-1,-1,0.4375451706805611,1.302351471432106,1.9299299022389418,0.46982207208686294,1.5958120180969495,3.9778218269348145,1.0
45,1,45,1,1,0.4066402628311706,-0.8045851996262932,1.9299299022389418,0.3910441813606242,1.5958120180969495,2.336806058883667,0.0
46,1,46,1,-1,-0.2251713384534212,-0.8045851996262932,1.9299299022389418,0.4679640150255436,1.5958120180969495,5.493711948394775,0.0
47,1,47,1,1,-0.36965683219180145,-0.8045851996262932,1.9299299022389418,0.3888676786189405,1.5958120180969495,2.5968027114868164,0.0
48,1,48,-1,1,1.1029066292735958,1.302351471432106,1.9299299022389418,0.3929963020953529,1.5958120180969495,2.466804265975952,1.0
49,1,49,1,1,2.9100810602936464,-0.8045851996262932,1.9299299022389418,0.39806307373347083,1.5958120180969495,3.0768251419067383,0.0
50,1,50,1,1,0.586026369432139,-0.8045851996262932,1.9299299022389418,0.39154712585872953,1.5958120180969495,2.788811683654785,0.0
51,1,51,1,1,1.9558797350734454,-0.8045851996262932,1.9299299022389418,0.39538778122783746,1.5958120180969495,3.259833812713623,0.0
52,1,52,1,1,1.4171194449455942,-0.8045851996262932,1.9299299022389418,0.39387725999042533,1.5958120180969495,2.3688056468963623,0.0
53,1,53,1,1,1.6624607930908715,-0.8045851996262932,1.9299299022389418,0.3945651230782947,1.5958120180969495,2.956819534301758,0.0
54,1,54,-1,-1,-1.8641467019195035,1.302351471432106,1.9299299022389418,0.46336882280467057,1.5958120180969495,2.472804307937622,1.0
55,1,55,-1,1,2.6928873529878876,1.302351471432106,1.9299299022389418,0.3974541281346039,1.5958120180969495,3.899827480316162,1.0
56,1,56,1,-1,-1.786508666711391,-0.8045851996262932,1.9299299022389418,0.46358649642160504,1.5958120180969495,2.748809814453125,0.0
57,1,57,-1,-1,-1.3653077128929447,1.302351471432106,1.9299299022389418,0.4647674167633957,1.5958120180969495,3.1418280601501465,1.0
58,1,58,-1,1,0.15741989975454662,1.302351471432106,1.9299299022389418,0.39034544268570537,1.5958120180969495,2.2228074073791504,1.0
59,1,59,1,-1,-2.9515551755571794,-0.8045851996262932,1.9299299022389418,0.4603200576613044,1.5958120180969495,4.7457661628723145,0.0
60,1,60,-1,-1,-2.388789077132232,1.302351471432106,1.9299299022389418,0.46189788393941544,1.5958120180969495,2.5388033390045166,1.0
61,1,61,1,-1,-0.9539135254359852,-0.8045851996262932,1.9299299022389418,0.465920841892323,1.5958120180969495,3.4208412170410156,0.0
62,1,62,-1,-1,-1.228156794344768,1.302351471432106,1.9299299022389418,0.4651519465422115,1.5958120180969495,2.6708061695098877,1.0
63,1,63,1,1,1.6504123056762028,-0.8045851996262932,1.9299299022389418,0.39453134275622564,1.5958120180969495,2.8788158893585205,0.0
64,1,64,1,1,-0.14994893040037405,-0.8045851996262932,1.9299299022389418,0.3894836732602762,1.5958120180969495,2.234807252883911,0.0
65,1,65,-1,-1,-1.1464884833145836,1.302351471432106,1.9299299022389418,0.4653809198360773,1.5958120180969495,2.560803174972534,1.0
66,1,66,1,1,0.0011564368260937874,-0.8045851996262932,1.9299299022389418,0.38990732710126064,1.5958120180969495,5.118739128112793,0.0
67,1,67,-1,1,0.14369742441418398,1.302351471432106,1.9299299022389418,0.39030696900675893,1.5958120180969495,4.052816390991211,1.0
68,1,68,-1,1,1.7067786624712542,1.302351471432106,1.9299299022389418,0.39468937700740303,1.5958120180969495,2.6638059616088867,1.0
69,1,69,1,1,1.7983597072503499,-0.8045851996262932,1.9299299022389418,0.39494614261470196,1.5958120180969495,7.49256706237793,0.0
70,1,70,-1,1,1.3480115053844441,1.302351471432106,1.9299299022389418,0.3936835021870131,1.5958120180969495,3.5968494415283203,1.0
71,1,71,1,-1,-0.006806635535329009,-0.8045851996262932,1.9299299022389418,0.4685762437426613,1.5958120180969495,2.514803647994995,0.0
72,1,72,-1,-1,0.15094724335221987,1.302351471432106,1.9299299022389418,0.4690185380035974,1.5958120180969495,2.431804656982422,1.0
73,1,73,1,1,1.3831062472965032,-0.8045851996262932,1.9299299022389418,0.3937818972505525,1.5958120180969495,2.5788028240203857,0.0
74,1,74,1,1,0.23672184678760566,-0.8045851996262932,1.9299299022389418,0.39056778140917203,1.5958120180969495,2.0198099613189697,0.0
75,1,75,1,1,-0.6717538054681613,-0.8045851996262932,1.9299299022389418,0.38802068988897387,1.5958120180969495,3.508845329284668,0.0
76,1,76,-1,1,-0.9142037383838626,1.302351471432106,1.9299299022389418,0.3873409334566811,1.5958120180969495,5.885683536529541,1.0
77,1,77,-1,1,0.6529979649819553,1.302351471432106,1.9299299022389418,0.391734893998355,1.5958120180969495,3.3388373851776123,1.0
78,1,78,1,1,-0.10170786425984679,-0.8045851996262932,1.9299299022389418,0.38961892664894626,1.5958120180969495,2.050809621810913,0.0
79,1,79,1,1,0.457094049586772,-0.8045851996262932,1.9299299022389418,0.39118563855002486,1.5958120180969495,5.711696147918701,0.0
80,1,80,-1,1,1.5554040979937667,1.302351471432106,1.9299299022389418,0.39426496841857966,1.5958120180969495,3.3398375511169434,1.0
81,1,81,1,-1,0.9347162985056621,-0.8045851996262932,1.9299299022389418,0.47121598986619617,1.5958120180969495,4.887755870819092,0.0
82,1,82,-1,1,0.030663224629913,1.302351471432106,1.9299299022389418,0.3899900552281144,1.5958120180969495,2.8988168239593506,1.0
83,1,83,1,1,1.965458620679358,-0.8045851996262932,1.9299299022389418,0.39541463753184425,1.5958120180969495,1.8848117589950562,0.0
84,1,84,1,1,2.6240431805426208,-0.8045851996262932,1.9299299022389418,0.3972611098545708,1.5958120180969495,5.382719993591309,0.0
85,1,85,1,1,1.0637299206463262,-0.8045851996262932,1.9299299022389418,0.3928864624292199,1.5958120180969495,5.370720863342285,0.0
86,1,86,-1,1,1.2007297093507667,1.302351471432106,1.9299299022389418,0.39327056848556996,1.5958120180969495,3.060824394226074,1.0
87,1,87,-1,1,1.5537238979851862,1.302351471432106,1.9299299022389418,0.39426025764489686,1.5958120180969495,4.916753768920898,1.0
88,1,88,-1,-1,-1.1666739918756637,1.302351471432106,1.9299299022389418,0.46532432576274235,1.5958120180969495,3.2098312377929688,1.0
89,1,89,-1,1,-1.7800209748140166,1.302351471432106,1.9299299022389418,0.3849134432587029,1.5958120180969495,3.1138267517089844,1.0
90,1,90,-1,1,2.8559943993469314,1.302351471432106,1.9299299022389418,0.39791143106136273,1.5958120180969495,4.524782180786133,1.0
91,1,91,1,1,1.2958417398898763,-0.8045851996262932,1.9299299022389418,0.39353723391116885,1.5958120180969495,4.5737786293029785,0.0
92,1,92,-1,-1,-1.61451079087408,1.302351471432106,1.9299299022389418,0.46406872655066744,1.5958120180969495,3.0818252563476562,1.0
93,1,93,1,-1,-0.3998697158256037,-0.8045851996262932,1.9299299022389418,0.4674742135052803,1.5958120180969495,2.475804328918457,0.0
94,1,94,1,1,1.8616625770279054,-0.8045851996262932,1.9299299022389418,0.3951236247546077,1.5958120180969495,5.587705135345459,0.0
95,1,95,1,-1,-1.3846917205985994,-0.8045851996262932,1.9299299022389418,0.4647130698565392,1.5958120180969495,3.3418374061584473,0.0
96,1,96,1,-1,-0.9639624783526701,-0.8045851996262932,1.9299299022389418,0.46589266766145904,1.5958120180969495,2.4048051834106445,0.0
97,1,97,-1,1,0.8637579673103516,1.302351471432106,1.9299299022389418,0.3923258014303755,1.5958120180969495,2.746809720993042,1.0
98,1,98,-1,1,1.2619162027488982,1.302351471432106,1.9299299022389418,0.3934421169449019,1.5958120180969495,2.3518056869506836,1.0
99,1,99,1,-1,0.06240973886168999,-0.8045851996262932,1.9299299022389418,0.46877030556462407,1.5958120180969495,3.9288253784179688,0.0
100,1,100,1,-1,-1.1854618047390026,-0.8045851996262932,1.9299299022389418,0.4652716504062719,1.5958120180969495,2.2778067588806152,0.0
101,1,101,-1,-1,-1.3611793579961655,1.302351471432106,1.9299299022389418,0.4647789914244489,1.5958120180969495,2.757810115814209,1.0
102,1,102,1,1,0.8454791258110133,-0.8045851996262932,1.9299299022389418,0.3922745530759849,1.5958120180969495,11.544201850891113,0.0
103,1,103,1,-1,-2.53108048437569,-0.8045851996262932,1.9299299022389418,0.46149894178187173,1.5958120180969495,3.029822826385498,0.0
104,1,104,-1,1,2.198430294957999,1.302351471432106,1.9299299022389418,0.3960678197877782,1.5958120180969495,3.8748292922973633,1.0
105,1,105,1,1,0.14977319083728313,-0.8045851996262932,1.9299299022389418,0.39032400362193714,1.5958120180969495,2.8358139991760254,0.0
106,1,106,-1,-1,-0.5861339591328589,1.302351471432106,1.9299299022389418,0.46695198478790517,1.5958120180969495,4.731767177581787,1.0
107,1,107,1,-1,-2.025153384823515,-0.8045851996262932,1.9299299022389418,0.4629174086630788,1.5958120180969495,3.1338276863098145,0.0
108,1,108,-1,-1,-2.256749913108731,1.302351471432106,1.9299299022389418,0.46226808190144475,1.5958120180969495,2.0858092308044434,1.0
109,1,109,-1,-1,-0.601983675512448,1.302351471432106,1.9299299022389418,0.46690754696715814,1.5958120180969495,3.306835889816284,1.0
110,1,110,-1,1,1.7291446341222692,1.302351471432106,1.9299299022389418,0.3947520844411046,1.5958120180969495,6.577633380889893,1.0
111,1,111,1,-1,-1.3695517153892813,-0.8045851996262932,1.9299299022389418,0.4647555178613797,1.5958120180969495,3.6978421211242676,0.0
112,1,112,1,1,2.3106031643199234,-0.8045851996262932,1.9299299022389418,0.3963823186558972,1.5958120180969495,1.8798118829727173,0.0
113,1,113,-1,-1,-1.621038826596756,1.302351471432106,1.9299299022389418,0.46405042390888335,1.5958120180969495,2.427804946899414,1.0
114,1,114,1,-1,-0.9641123132794458,-0.8045851996262932,1.9299299022389418,0.4658922475695496,1.5958120180969495,3.1148269176483154,0.0
115,1,115,1,-1,-0.1282689425754422,-0.8045851996262932,1.9299299022389418,0.46823570009515975,1.5958120180969495,3.296835422515869,0.0
116,1,116,1,-1,-1.5931694638741405,-0.8045851996262932,1.9299299022389418,0.4641285611900398,1.5958120180969495,4.726767539978027,0.0
117,1,117,-1,-1,-1.5857616593298864,1.302351471432106,1.9299299022389418,0.46414933043805556,1.5958120180969495,3.573848247528076,1.0
118,1,118,-1,-1,-1.4135016876350757,1.302351471432106,1.9299299022389418,0.46463229540479295,1.5958120180969495,3.1108267307281494,1.0
119,1,119,-1,-1,0.6810860410741895,1.302351471432106,1.9299299022389418,0.47050488717856187,1.5958120180969495,3.54384708404541,1.0
120,1,120,1,1,-1.171205310780321,-0.8045851996262932,1.9299299022389418,0.386620378619462,1.5958120180969495,3.685842990875244,0.0
121,1,121,1,1,1.3580031065123306,-0.8045851996262932,1.9299299022389418,0.393711515620772,1.5958120180969495,4.0408172607421875,0.0
122,1,122,1,1,-0.18782893622012042,-0.8045851996262932,1.9299299022389418,0.3893774691574266,1.5958120180969495,2.383805274963379,0.0
123,1,123,1,1,2.4282792577856966,-0.8045851996262932,1.9299299022389418,0.39671224690334383,1.5958120180969495,3.525846004486084,0.0
124,1,124,1,-1,-0.9812190612261047,-0.8045851996262932,1.9299299022389418,0.46584428541170325,1.5958120180969495,2.5088038444519043,0.0
125,1,125,1,1,2.0500326030168,-0.8045851996262932,1.9299299022389418,0.3956517574510256,1.5958120180969495,2.1298086643218994,0.0
126,1,126,1,1,1.0078298979458893,-0.8045851996262932,1.9299299022389418,0.39272973563808833,1.5958120180969495,6.3256516456604,0.0
127,1,127,-1,1,1.6835829750391718,1.302351471432106,1.9299299022389418,0.39462434330108775,1.5958120180969495,4.428789138793945,1.0
128,1,128,-1,-1,-0.7192301497612961,1.302351471432106,1.9299299022389418,0.4665788232423221,1.5958120180969495,2.468804359436035,1.0
129,1,129,1,-1,-0.809972880263514,-0.8045851996262932,1.9299299022389418,0.46632440801522385,1.5958120180969495,3.1908304691314697,0.0
130,1,130,1,-1,-0.9218389733537424,-0.8045851996262932,1.9299299022389418,0.46601076925517526,1.5958120180969495,3.013822078704834,0.0
131,1,131,1,-1,-0.6982375373126881,-0.8045851996262932,1.9299299022389418,0.4666376801913464,1.5958120180969495,2.186807870864868,0.0
132,1,132,-1,-1,-0.0490973990629594,1.302351471432106,1.9299299022389418,0.46845767320651494,1.5958120180969495,4.75376558303833,1.0
133,1,133,-1,-1,-1.5110335299935522,1.302351471432106,1.9299299022389418,0.4643588455572337,1.5958120180969495,2.2698068618774414,1.0
134,1,134,-1,1,0.44761577787450924,1.302351471432106,1.9299299022389418,0.3911590643370072,1.5958120180969495,2.8088126182556152,1.0
135,1,135,1,1,1.4386565397990494,-0.8045851996262932,1.9299299022389418,0.3939376435037696,1.5958120180969495,3.042823553085327,0.0
136,1,136,-1,-1,-1.095320503984445,1.302351471432106,1.9299299022389418,0.46552437940588953,1.5958120180969495,2.328806161880493,1.0
137,1,137,-1,1,0.5600322917434597,1.302351471432106,1.9299299022389418,0.39147424631078365,1.5958120180969495,3.555847644805908,1.0
138,1,138,1,-1,-1.5130865711038226,-0.8045851996262932,1.9299299022389418,0.4643530894496379,1.5958120180969495,2.743809700012207,0.0
139,1,139,-1,1,0.939398579915004,1.302351471432106,1.9299299022389418,0.3925378748772197,1.5958120180969495,4.2548017501831055,1.0
140,1,140,-1,-1,-2.207761456047731,1.302351471432106,1.9299299022389418,0.46240543074866797,1.5958120180969495,2.382805347442627,1.0
141,1,141,-1,1,2.1891206618785426,1.302351471432106,1.9299299022389418,0.3960417183865861,1.5958120180969495,3.731839656829834,1.0
142,1,142,-1,1,2.8590963686174256,1.302351471432106,1.9299299022389418,0.3979201280469178,1.5958120180969495,3.1318278312683105,1.0
143,1,143,-1,1,0.8817927543608545,1.302351471432106,1.9299299022389418,0.3923763655297554,1.5958120180969495,3.267834186553955,1.0
144,1,144,1,-1,-1.9440629083388963,-0.8045851996262932,1.9299299022389418,0.4631447618832889,1.5958120180969495,3.756837844848633,0.0
145,1,145,-1,-1,-2.215584612428646,1.302351471432106,1.9299299022389418,0.46238349697946945,1.5958120180969495,2.784811496734619,1.0
146,1,146,1,-1,-1.91790660364663,-0.8045851996262932,1.9299299022389418,0.46321809626678717,1.5958120180969495,3.7798361778259277,0.0
147,1,147,-1,1,1.2898683820611427,1.302351471432106,1.9299299022389418,0.3935204864187788,1.5958120180969495,3.0628244876861572,1.0
148,1,148,1,1,0.6612832585303156,-0.8045851996262932,1.9299299022389418,0.3917581234606823,1.5958120180969495,2.380805492401123,0.0
149,1,149,1,-1,-0.5269009198033319,-0.8045851996262932,1.9299299022389418,0.4671180563516473,1.5958120180969495,3.221831798553467,0.0
150,1,150,1,1,0.41543322366328406,-0.8045851996262932,1.9299299022389418,0.39106883416878396,1.5958120180969495,2.004810333251953,0.0
151,1,151,1,1,0.6078529217779477,-0.8045851996262932,1.9299299022389418,0.3916083209235143,1.5958120180969495,2.8728156089782715,0.0
152,1,152,1,-1,0.1774579489926038,-0.8045851996262932,1.9299299022389418,0.46909286602038397,1.5958120180969495,7.014601707458496,0.0
153,1,153,-1,1,1.4760436026104764,1.302351471432106,1.9299299022389418,0.39404246554321076,1.5958120180969495,3.4348418712615967,1.0
154,1,154,-1,1,1.6946270384088669,1.302351471432106,1.9299299022389418,0.3946553075213039,1.5958120180969495,2.5458033084869385,1.0
155,1,155,1,-1,-2.179657607472952,-0.8045851996262932,1.9299299022389418,0.4624842254573781,1.5958120180969495,4.188806533813477,0.0
156,1,156,-1,-1,-2.280628987999384,1.302351471432106,1.9299299022389418,0.4622011321829651,1.5958120180969495,2.943819046020508,1.0
157,1,157,-1,1,1.0176963091205768,1.302351471432106,1.9299299022389418,0.39275739807700505,1.5958120180969495,3.9738221168518066,1.0
158,1,158,-1,1,0.8329118790450573,1.302351471432106,1.9299299022389418,0.39223931830927394,1.5958120180969495,4.764764785766602,1.0
159,1,159,-1,1,-0.15265310924428666,1.302351471432106,1.9299299022389418,0.38947609155901064,1.5958120180969495,6.789618015289307,1.0
160,1,160,1,1,0.5530238623447568,-0.8045851996262932,1.9299299022389418,0.3914545967901311,1.5958120180969495,2.9068171977996826,0.0
161,1,161,-1,-1,-2.462835279274333,1.302351471432106,1.9299299022389418,0.4616902807382612,1.5958120180969495,4.307797908782959,1.0
162,1,162,1,-1,-0.5989699161954272,-0.8045851996262932,1.9299299022389418,0.46691599663862837,1.5958120180969495,5.344722747802734,0.0
163,1,163,-1,1,1.26954425781881,1.302351471432106,1.9299299022389418,0.3934635037089125,1.5958120180969495,3.3328371047973633,1.0
164,1,164,-1,1,0.10973389895890628,1.302351471432106,1.9299299022389418,0.3902117455327248,1.5958120180969495,3.4258413314819336,1.0
165,1,165,-1,-1,0.7110229148268981,1.302351471432106,1.9299299022389418,0.47058882113660183,1.5958120180969495,5.00474739074707,1.0
166,1,166,1,-1,-0.38186315910660884,-0.8045851996262932,1.9299299022389418,0.4675246984553315,1.5958120180969495,2.743809700012207,0.0
167,1,167,1,-1,-1.5169659256296022,-0.8045851996262932,1.9299299022389418,0.46434221291046823,1.5958120180969495,2.6138033866882324,0.0
168,1,168,1,-1,-1.847818347127223,-0.8045851996262932,1.9299299022389418,0.4634146025830575,1.5958120180969495,2.279806613922119,0.0
169,1,169,-1,-1,-0.7300041950238026,1.302351471432106,1.9299299022389418,0.4665486160713778,1.5958120180969495,6.065670490264893,1.0
170,1,170,1,-1,-2.0713058481980045,-0.8045851996262932,1.9299299022389418,0.46278801108615364,1.5958120180969495,2.4128050804138184,0.0
171,1,171,-1,-1,-1.7862986824687612,1.302351471432106,1.9299299022389418,0.463587085154041,1.5958120180969495,4.503783702850342,1.0
172,1,172,1,1,1.9221678356337928,-0.8045851996262932,1.9299299022389418,0.39529326323720193,1.5958120180969495,8.152519226074219,0.0
173,1,173,1,-1,0.2879350755296326,-0.8045851996262932,1.9299299022389418,0.4694026105374546,1.5958120180969495,3.4268414974212646,0.0
174,1,174,1,-1,0.5527102908591763,-0.8045851996262932,1.9299299022389418,0.4701449603231092,1.5958120180969495,6.8986101150512695,0.0
175,1,175,-1,1,0.5553076210886965,1.302351471432106,1.9299299022389418,0.3914609997603334,1.5958120180969495,2.2618069648742676,1.0
176,1,176,-1,1,2.1902955996149007,1.302351471432106,1.9299299022389418,0.3960450125573628,1.5958120180969495,2.6478052139282227,1.0
177,1,177,1,1,0.8420117843629332,-0.8045851996262932,1.9299299022389418,0.3922648316971256,1.5958120180969495,2.0738093852996826,0.0
178,1,178,1,1,1.4250478972965228,-0.8045851996262932,1.9299299022389418,0.39389948897774185,1.5958120180969495,2.707808017730713,0.0
179,1,179,-1,-1,-1.3351607200962996,1.302351471432106,1.9299299022389418,0.46485193983181383,1.5958120180969495,3.510845422744751,1.0
180,1,180,1,1,0.04429146774682968,-0.8045851996262932,1.9299299022389418,0.3900282647083488,1.5958120180969495,2.33280611038208,0.0
181,1,181,1,-1,-0.9343076757409436,-0.8045851996262932,1.9299299022389418,0.46597581077715833,1.5958120180969495,3.1868302822113037,0.0
182,1,182,1,1,0.022743716593685015,-0.8045851996262932,1.9299299022389418,0.38996785131795664,1.5958120180969495,5.9606781005859375,0.0
183,1,183,1,-1,-1.2358992548850727,-0.8045851996262932,1.9299299022389418,0.4651302390197934,1.5958120180969495,2.392805337905884,0.0
184,1,184,1,1,1.3403631612972382,-0.8045851996262932,1.9299299022389418,0.3936620585387219,1.5958120180969495,2.6508052349090576,0.0
185,1,185,1,1,3.0895879530126984,-0.8045851996262932,1.9299299022389418,0.39856635687939396,1.5958120180969495,3.9108266830444336,0.0
186,1,186,-1,-1,-0.2767174321548238,1.302351471432106,1.9299299022389418,0.46781949533716205,1.5958120180969495,3.8958277702331543,1.0
187,1,187,1,1,-0.1489008654489523,-0.8045851996262932,1.9299299022389418,0.3894866117180585,1.5958120180969495,6.531636714935303,0.0
188,1,188,-1,1,-0.03602044624673306,1.302351471432106,1.9299299022389418,0.3898030943423671,1.5958120180969495,3.257833480834961,1.0
189,1,189,-1,-1,-1.811170917402037,1.302351471432106,1.9299299022389418,0.4635173509145712,1.5958120180969495,2.939818859100342,1.0
190,1,190,1,-1,-0.05325800136813541,-0.8045851996262932,1.9299299022389418,0.46844600813346193,1.5958120180969495,3.5908491611480713,0.0
191,1,191,-1,-1,-0.44606096815648777,1.302351471432106,1.9299299022389418,0.46734470717582915,1.5958120180969495,3.1058263778686523,1.0
192,1,192,-1,1,2.3303194153355467,1.302351471432106,1.9299299022389418,0.39643759707271253,1.5958120180969495,2.5418033599853516,1.0
193,1,193,1,-1,-1.2884853337999986,-0.8045851996262932,1.9299299022389418,0.4649828035267759,1.5958120180969495,5.94167947769165,0.0
194,1,194,-1,-1,-2.868170521436681,1.302351471432106,1.9299299022389418,0.46055384306314495,1.5958120180969495,3.598849296569824,1.0
195,1,195,-1,1,0.4936048823760102,1.302351471432106,1.9299299022389418,0.39128800390495977,1.5958120180969495,4.691770076751709,1.0
196,1,196,-1,1,0.33005042503400683,1.302351471432106,1.9299299022389418,0.3908294465728485,1.5958120180969495,3.1008262634277344,1.0
197,1,197,1,1,1.1697913544136225,-0.8045851996262932,1.9299299022389418,0.39318382667656976,1.5958120180969495,2.514803647994995,0.0
198,1,198,-1,1,0.9559092622272808,1.302351471432106,1.9299299022389418,0.39258416584694006,1.5958120180969495,3.548847198486328,1.0
199,1,199,-1,-1,-2.1421981521590183,1.302351471432106,1.9299299022389418,0.46258925046354576,1.5958120180969495,2.9028170108795166,1.0
200,1,200,-1,1,1.4014696252438417,1.302351471432106,1.9299299022389418,0.39383338261962736,1.5958120180969495,2.96481990814209,1.0
201,1,201,1,-1,-0.35156076794158797,-0.8045851996262932,1.9299299022389418,0.4676096572138701,1.5958120180969495,3.1708295345306396,0.0
202,1,202,-1,-1,-1.4418414441244234,1.302351471432106,1.9299299022389418,0.4645528392814953,1.5958120180969495,2.6508052349090576,1.0
203,1,203,-1,1,1.008984379222817,1.302351471432106,1.9299299022389418,0.3927329724551273,1.5958120180969495,4.090813636779785,1.0
204,1,204,1,-1,-2.2662989194574426,-0.8045851996262932,1.9299299022389418,0.4622413093698566,1.5958120180969495,7.5825605392456055,0.0
205,1,205,-1,1,-0.4043191326122135,1.302351471432106,1.9299299022389418,0.38877049599081814,1.5958120180969495,2.6548054218292236,1.0
206,1,206,-1,-1,1.00369109739394,1.302351471432106,1.9299299022389418,0.47140937438334807,1.5958120180969495,3.299835681915283,1.0
207,1,207,1,-1,-2.5540934053245077,-0.8045851996262932,1.9299299022389418,0.46143442049761035,1.5958120180969495,3.3528380393981934,0.0
208,1,208,-1,1,2.573851828315558,1.302351471432106,1.9299299022389418,0.39712038845237646,1.5958120180969495,4.644773483276367,1.0
209,1,209,1,1,0.27293151665758797,-0.8045851996262932,1.9299299022389418,0.3906693023941825,1.5958120180969495,3.1278276443481445,0.0
210,1,210,-1,-1,-2.784720301839704,1.302351471432106,1.9299299022389418,0.4607878122907917,1.5958120180969495,2.2108075618743896,1.0
211,1,211,1,-1,-2.982559933923632,-0.8045851996262932,1.9299299022389418,0.46023312967713126,1.5958120180969495,2.6408047676086426,0.0
212,1,212,1,1,0.5796823735703274,-0.8045851996262932,1.9299299022389418,0.3915293392091658,1.5958120180969495,2.741809368133545,0.0
213,1,213,-1,1,-0.3266194877870181,1.302351471432106,1.9299299022389418,0.3889883423425231,1.5958120180969495,3.581848621368408,1.0
214,1,214,1,1,0.44092712568802717,-0.8045851996262932,1.9299299022389418,0.3911403113751381,1.5958120180969495,4.5737786293029785,0.0
215,1,215,1,1,0.7004026484700481,-0.8045851996262932,1.9299299022389418,0.39186780242251623,1.5958120180969495,6.816616058349609,0.0
216,1,216,-1,1,1.0415846778309454,1.302351471432106,1.9299299022389418,0.39282437385255,1.5958120180969495,4.983748912811279,1.0
217,1,217,1,-1,-0.3860858605382754,-0.8045851996262932,1.9299299022389418,0.46751285927507147,1.5958120180969495,8.430499076843262,0.0
218,1,218,1,1,2.7987884286260916,-0.8045851996262932,1.9299299022389418,0.39775104278616136,1.5958120180969495,4.87675666809082,0.0
219,1,219,1,-1,-1.2741459118159484,-0.8045851996262932,1.9299299022389418,0.4650230069378959,1.5958120180969495,1.8008122444152832,0.0
220,1,220,1,1,1.942713111516286,-0.8045851996262932,1.9299299022389418,0.3953508659895162,1.5958120180969495,3.1358280181884766,0.0
221,1,221,-1,-1,-0.7985247968361456,1.302351471432106,1.9299299022389418,0.46635650498573483,1.5958120180969495,6.469641208648682,1.0
222,1,222,-1,1,1.8017622633420407,1.302351471432106,1.9299299022389418,0.39495568235497636,1.5958120180969495,3.4088406562805176,1.0
223,1,223,-1,-1,0.49843494900907315,1.302351471432106,1.9299299022389418,0.4699927886466983,1.5958120180969495,3.1908304691314697,1.0
224,1,224,-1,1,2.2879812312930423,1.302351471432106,1.9299299022389418,0.39631889358375555,1.5958120180969495,3.3938398361206055,1.0
225,1,225,1,-1,1.2491004583336047,-0.8045851996262932,1.9299299022389418,0.47209742815856437,1.5958120180969495,3.499845027923584,0.0
226,1,226,-1,1,2.869150084791078,1.302351471432106,1.9299299022389418,0.39794831563251665,1.5958120180969495,2.943819046020508,1.0
227,1,227,1,1,-1.0392496692666624,-0.8045851996262932,1.9299299022389418,0.3869903424095837,1.5958120180969495,2.985820770263672,0.0
228,1,228,-1,1,0.3939844786454567,1.302351471432106,1.9299299022389418,0.3910086983617118,1.5958120180969495,3.212831497192383,1.0
229,1,229,-1,1,0.8954090705027933,1.302351471432106,1.9299299022389418,0.39241454157035194,1.5958120180969495,2.9448189735412598,1.0
230,1,230,-1,1,0.5474782047015023,1.302351471432106,1.9299299022389418,0.39143904843996674,1.5958120180969495,4.421789646148682,1.0
231,1,231,1,1,1.9780494058580778,-0.8045851996262932,1.9299299022389418,0.3954499382931599,1.5958120180969495,4.626774787902832,0.0
232,1,232,-1,-1,-0.5621443958362929,1.302351471432106,1.9299299022389418,0.4670192442825259,1.5958120180969495,2.0678093433380127,1.0
233,1,233,1,-1,-1.0017896208206283,-0.8045851996262932,1.9299299022389418,0.4657866117714919,1.5958120180969495,3.539846897125244,0.0
234,1,234,1,1,-0.11482050741109684,-0.8045851996262932,1.9299299022389418,0.3895821627553901,1.5958120180969495,2.9068171977996826,0.0
235,1,235,1,1,-0.9407575634479264,-0.8045851996262932,1.9299299022389418,0.3872664845460454,1.5958120180969495,2.817812919616699,0.0
236,1,236,-1,1,1.4613481999678604,1.302351471432106,1.9299299022389418,0.3940012640697712,1.5958120180969495,2.8828160762786865,1.0
237,1,237,1,1,-0.6878130553151784,-0.8045851996262932,1.9299299022389418,0.38797566459962846,1.5958120180969495,2.4068050384521484,0.0
238,1,238,-1,1,1.5900917195515016,1.302351471432106,1.9299299022389418,0.39436222203952825,1.5958120180969495,3.9958205223083496,1.0
239,1,239,1,1,1.6744346614156977,-0.8045851996262932,1.9299299022389418,0.39459869419095844,1.5958120180969495,2.294806480407715,0.0
240,1,240,-1,-1,-3.1015869261625255,1.302351471432106,1.9299299022389418,0.4598994139172718,1.5958120180969495,3.012822151184082,1.0
241,1,241,-1,1,1.2240254174674907,1.302351471432106,1.9299299022389418,0.3933358826196954,1.5958120180969495,1.9388110637664795,0.0
242,1,242,1,1,0.810435538305932,-0.8045851996262932,1.9299299022389418,0.3921763014339625,1.5958120180969495,4.013819217681885,0.0
243,1,243,-1,-1,-1.7172021582053567,1.302351471432106,1.9299299022389418,0.4637808109524039,1.5958120180969495,2.28080677986145,1.0
244,1,244,1,1,3.1499725282418423,-0.8045851996262932,1.9299299022389418,0.39873565700222613,1.5958120180969495,2.43680477142334,0.0
245,1,245,-1,1,1.548849878926541,1.302351471432106,1.9299299022389418,0.3942465923666005,1.5958120180969495,3.646845817565918,1.0
246,1,246,1,1,0.4302899106278997,-0.8045851996262932,1.9299299022389418,0.39111048783478136,1.5958120180969495,2.4658043384552,0.0
247,1,247,-1,-1,0.5790096798715814,1.302351471432106,1.9299299022389418,0.4702186958718535,1.5958120180969495,3.000821590423584,1.0
248,1,248,1,1,-0.03353758348349056,-0.8045851996262932,1.9299299022389418,0.38981005554014314,1.5958120180969495,1.913811445236206,0.0
249,1,249,1,1,2.3464651545549238,-0.8045851996262932,1.9299299022389418,0.3964828648521526,1.5958120180969495,1.9228112697601318,0.0
250,1,250,-1,1,1.1203584439554763,1.302351471432106,1.9299299022389418,0.39304523171617206,1.5958120180969495,3.7458386421203613,1.0
251,1,251,-1,1,1.8269484553844095,1.302351471432106,1.9299299022389418,0.39502629683541723,1.5958120180969495,2.989820957183838,1.0
252,1,252,1,-1,-2.097715416090822,-0.8045851996262932,1.9299299022389418,0.4627139666290844,1.5958120180969495,2.8528146743774414,0.0
253,1,253,1,-1,-0.26858797604142626,-0.8045851996262932,1.9299299022389418,0.4678422878783588,1.5958120180969495,2.380805492401123,0.0
254,1,254,1,-1,-1.616085506998298,-0.8045851996262932,1.9299299022389418,0.46406431152195776,1.5958120180969495,3.1488285064697266,0.0
255,1,255,-1,1,1.7469676596799055,1.302351471432106,1.9299299022389418,0.39480205482517533,1.5958120180969495,4.066815376281738,1.0
256,1,256,1,1,1.4512353143897252,-0.8045851996262932,1.9299299022389418,0.3939729105910216,1.5958120180969495,2.3098063468933105,0.0
257,1,257,1,-1,-1.0644637382387048,-0.8045851996262932,1.9299299022389418,0.4656108924634234,1.5958120180969495,2.0548095703125,0.0
258,1,258,1,-1,-1.550590755145587,-0.8045851996262932,1.9299299022389418,0.464247939037618,1.5958120180969495,2.516803741455078,0.0
259,1,259,1,-1,-1.0352929264839574,-0.8045851996262932,1.9299299022389418,0.46569267861484454,1.5958120180969495,3.1948306560516357,0.0
260,1,260,1,-1,0.12068368325806733,-0.8045851996262932,1.9299299022389418,0.468933688115661,1.5958120180969495,6.436643600463867,0.0
261,1,261,1,1,0.30176753739043083,-0.8045851996262932,1.9299299022389418,0.3907501498926295,1.5958120180969495,2.9418187141418457,0.0
262,1,262,1,1,1.941255228354267,-0.8045851996262932,1.9299299022389418,0.3953467785251684,1.5958120180969495,3.218831777572632,0.0
263,1,263,1,1,-0.6752142169684165,-0.8045851996262932,1.9299299022389418,0.38801098793959654,1.5958120180969495,2.6768064498901367,0.0
264,1,264,-1,-1,-1.757736716623391,1.302351471432106,1.9299299022389418,0.4636671642853026,1.5958120180969495,6.497639179229736,1.0
265,1,265,-1,-1,-0.9669426864295358,1.302351471432106,1.9299299022389418,0.4658843120575393,1.5958120180969495,2.992821216583252,1.0
266,1,266,-1,1,0.6056571740510951,1.302351471432106,1.9299299022389418,0.3916021647096392,1.5958120180969495,2.1808080673217773,1.0
267,1,267,1,1,1.6876298875860478,-0.8045851996262932,1.9299299022389418,0.3946356896223739,1.5958120180969495,2.792811870574951,0.0
268,1,268,-1,1,1.258816655685854,1.302351471432106,1.9299299022389418,0.3934334267504854,1.5958120180969495,2.788811683654785,1.0
269,1,269,1,-1,-0.9637047447169033,-0.8045851996262932,1.9299299022389418,0.465893390268781,1.5958120180969495,4.096813201904297,0.0
270,1,270,1,-1,-3.2152524306823365,-0.8045851996262932,1.9299299022389418,0.45958073015069795,1.5958120180969495,2.6268041133880615,0.0
271,1,271,1,1,1.0934499539645746,-0.8045851996262932,1.9299299022389418,0.39296978843213143,1.5958120180969495,3.8288326263427734,0.0
272,1,272,1,1,2.219689449247439,-0.8045851996262932,1.9299299022389418,0.3961274240396729,1.5958120180969495,3.3778390884399414,0.0
273,1,273,-1,-1,-1.2945511241779897,1.302351471432106,1.9299299022389418,0.46496579688141704,1.5958120180969495,2.2578070163726807,1.0
274,1,274,1,-1,-1.0510263914460192,-0.8045851996262932,1.9299299022389418,0.4656485667279836,1.5958120180969495,8.469496726989746,0.0
275,1,275,1,-1,-1.112461629564618,-0.8045851996262932,1.9299299022389418,0.4654763208635351,1.5958120180969495,2.047809600830078,0.0
276,1,276,-1,-1,-1.4558274148511312,1.302351471432106,1.9299299022389418,0.4645136268410174,1.5958120180969495,3.7418389320373535,1.0
277,1,277,-1,-1,0.13687071131644002,1.302351471432106,1.9299299022389418,0.4689790716565433,1.5958120180969495,2.9298181533813477,1.0
278,1,278,1,1,1.7771092551512055,-0.8045851996262932,1.9299299022389418,0.3948865627611223,1.5958120180969495,3.755837917327881,0.0
279,1,279,1,1,1.6069384700128655,-0.8045851996262932,1.9299299022389418,0.39440945524290194,1.5958120180969495,2.6848068237304688,0.0
280,1,280,1,1,0.796353046225903,-0.8045851996262932,1.9299299022389418,0.39213681837674325,1.5958120180969495,1.9078115224838257,0.0
281,1,281,1,1,1.1764885605144524,-0.8045851996262932,1.9299299022389418,0.3932026036210328,1.5958120180969495,2.3558058738708496,0.0
282,1,282,1,-1,0.09601250197196376,-0.8045851996262932,1.9299299022389418,0.468864517569933,1.5958120180969495,4.1678080558776855,1.0
283,1,283,1,1,0.8013217287113421,-0.8045851996262932,1.9299299022389418,0.39215074906271574,1.5958120180969495,2.528803586959839,0.0
284,1,284,1,-1,0.0529963974004406,-0.8045851996262932,1.9299299022389418,0.468743913396432,1.5958120180969495,3.4498424530029297,0.0
285,1,285,-1,1,0.9522699832612238,1.302351471432106,1.9299299022389418,0.3925739624071769,1.5958120180969495,3.3998403549194336,1.0
286,1,286,-1,1,2.167132960226992,1.302351471432106,1.9299299022389418,0.39598007150778836,1.5958120180969495,3.0838255882263184,1.0
287,1,287,-1,1,2.524599048675194,1.302351471432106,1.9299299022389418,0.39698229852442224,1.5958120180969495,2.5558032989501953,1.0
288,1,288,-1,-1,-1.6188183964473124,1.302351471432106,1.9299299022389418,0.4640566493248214,1.5958120180969495,2.381805419921875,1.0
289,1,289,1,-1,-0.16946073802940587,-0.8045851996262932,1.9299299022389418,0.46812021073378607,1.5958120180969495,2.69880747795105,0.0
290,1,290,1,1,1.1572998959924128,-0.8045851996262932,1.9299299022389418,0.393148804397502,1.5958120180969495,2.9208178520202637,0.0
291,1,291,1,1,1.4984439347203102,-0.8045851996262932,1.9299299022389418,0.3941052693132677,1.5958120180969495,2.188807964324951,0.0
292,1,292,1,-1,-2.0467841274548357,-0.8045851996262932,1.9299299022389418,0.46285676258963143,1.5958120180969495,5.734694480895996,0.0
293,1,293,-1,1,1.1514814140979825,1.302351471432106,1.9299299022389418,0.393132491130485,1.5958120180969495,2.4938039779663086,1.0
294,1,294,-1,1,0.24133865073650485,1.302351471432106,1.9299299022389418,0.39058072553393697,1.5958120180969495,3.9558234214782715,1.0
295,1,295,1,-1,-2.3335085515432965,-0.8045851996262932,1.9299299022389418,0.46205287384763155,1.5958120180969495,2.579802989959717,0.0
296,1,296,1,1,0.42658408284343086,-0.8045851996262932,1.9299299022389418,0.39110009781221805,1.5958120180969495,4.842759132385254,0.0
297,1,297,1,1,1.3498233453530242,-0.8045851996262932,1.9299299022389418,0.3936885820394103,1.5958120180969495,1.9908103942871094,0.0
298,1,298,-1,-1,-1.2451146466287921,1.302351471432106,1.9299299022389418,0.4651044018428614,1.5958120180969495,2.6468050479888916,1.0
299,1,299,-1,1,2.654795598571649,1.302351471432106,1.9299299022389418,0.39734733035260267,1.5958120180969495,3.4188411235809326,1.0
300,1,300,-1,1,3.0050445771946763,1.302351471432106,1.9299299022389418,0.398329322771655,1.5958120180969495,2.789811611175537,1.0
301,1,301,-1,-1,-0.0813312804823294,1.302351471432106,1.9299299022389418,0.46836729913229236,1.5958120180969495,2.3498058319091797,1.0
302,1,302,-1,-1,-1.8327590271953724,1.302351471432106,1.9299299022389418,0.46345682437073354,1.5958120180969495,2.96481990814209,1.0
303,1,303,-1,1,0.5739185306758133,1.302351471432106,1.9299299022389418,0.39151317913341266,1.5958120180969495,3.7238402366638184,1.0
304,1,304,1,-1,-0.5273881409190109,-0.8045851996262932,1.9299299022389418,0.4671166903306988,1.5958120180969495,3.839831829071045,0.0
305,1,305,-1,1,-0.5118940945416832,1.302351471432106,1.9299299022389418,0.3884688882673356,1.5958120180969495,3.6408462524414062,1.0
306,1,306,1,1,1.8902783546769553,-0.8045851996262932,1.9299299022389418,0.3952038547579246,1.5958120180969495,2.796812057495117,0.0
307,1,307,1,1,1.1945218528082249,-0.8045851996262932,1.9299299022389418,0.3932531635295661,1.5958120180969495,1.7988121509552002,0.0
308,1,308,1,1,-0.6226696162939664,-0.8045851996262932,1.9299299022389418,0.38815830714014726,1.5958120180969495,3.1378278732299805,0.0
309,1,309,1,1,3.0937270525523437,-0.8045851996262932,1.9299299022389418,0.39857796166518267,1.5958120180969495,2.3578057289123535,0.0
310,1,310,1,1,0.5983081097732523,-0.8045851996262932,1.9299299022389418,0.3915815601516007,1.5958120180969495,4.828760147094727,0.0
311,1,311,1,-1,-0.6298992033683312,-0.8045851996262932,1.9299299022389418,0.46682928025290216,1.5958120180969495,2.249807119369507,0.0
312,1,312,-1,-1,-3.213228711145731,1.302351471432106,1.9299299022389418,0.4595864040494515,1.5958120180969495,2.9158177375793457,1.0
313,1,313,-1,-1,-1.048483618065035,1.302351471432106,1.9299299022389418,0.46565569589704875,1.5958120180969495,2.2208075523376465,1.0
314,1,314,1,-1,-3.0385860127193927,-0.8045851996262932,1.9299299022389418,0.46007604946275643,1.5958120180969495,4.875756740570068,1.0
315,1,315,1,-1,-1.5563276141319893,-0.8045851996262932,1.9299299022389418,0.4642318546165985,1.5958120180969495,2.0678093433380127,0.0
316,1,316,-1,1,1.633693055541659,1.302351471432106,1.9299299022389418,0.39448446702528445,1.5958120180969495,2.335805892944336,1.0
317,1,317,-1,-1,-1.2587613526800907,1.302351471432106,1.9299299022389418,0.4650661405981317,1.5958120180969495,2.331806182861328,1.0
318,1,318,1,-1,-1.216389119608581,-0.8045851996262932,1.9299299022389418,0.4651849395502889,1.5958120180969495,5.332723617553711,0.0
319,1,319,-1,1,-0.12127376441594873,1.302351471432106,1.9299299022389418,0.3895640697705601,1.5958120180969495,3.60184907913208,1.0
320,1,320,1,1,0.5320152730228138,-0.8045851996262932,1.9299299022389418,0.3913956950467763,1.5958120180969495,2.335805892944336,0.0
321,1,321,1,1,0.4529526534296251,-0.8045851996262932,1.9299299022389418,0.3911740273252139,1.5958120180969495,2.3638057708740234,0.0
322,1,322,1,-1,-1.5463487470454116,-0.8045851996262932,1.9299299022389418,0.46425983234794915,1.5958120180969495,7.339578151702881,0.0
323,1,323,1,1,1.6619113977158106,-0.8045851996262932,1.9299299022389418,0.3945635827394892,1.5958120180969495,7.780546188354492,0.0
324,1,324,1,1,0.7600036850897505,-0.8045851996262932,1.9299299022389418,0.392034905739586,1.5958120180969495,2.529803514480591,0.0
325,1,325,1,-1,-1.448387260785549,-0.8045851996262932,1.9299299022389418,0.46453448678732673,1.5958120180969495,2.3568058013916016,0.0
326,1,326,-1,-1,-1.8370159925424714,1.302351471432106,1.9299299022389418,0.4634448891247966,1.5958120180969495,3.943824291229248,1.0
327,1,327,1,-1,-1.5880852159819323,-0.8045851996262932,1.9299299022389418,0.46414281588653133,1.5958120180969495,3.9548234939575195,0.0
328,1,328,-1,-1,-0.5229871478492721,1.302351471432106,1.9299299022389418,0.46712902938689754,1.5958120180969495,3.3508379459381104,1.0
329,1,329,1,-1,-1.6827027425494898,-0.8045851996262932,1.9299299022389418,0.4638775369008106,1.5958120180969495,4.50778341293335,0.0
330,1,330,1,-1,-0.49149422609733207,-0.8045851996262932,1.9299299022389418,0.46721732603385935,1.5958120180969495,3.4068405628204346,0.0
331,1,331,-1,-1,-1.9772906124666372,1.302351471432106,1.9299299022389418,0.4630516014301614,1.5958120180969495,2.329806089401245,1.0
332,1,332,1,-1,-1.0432765805818789,-0.8045851996262932,1.9299299022389418,0.4656702948584912,1.5958120180969495,5.307725429534912,0.0
333,1,333,1,1,2.470630179476879,-0.8045851996262932,1.9299299022389418,0.3968309861048231,1.5958120180969495,2.186807870864868,0.0
334,1,334,-1,1,0.6235250669369811,1.302351471432106,1.9299299022389418,0.3916522608881559,1.5958120180969495,2.526803493499756,1.0
335,1,335,-1,-1,-1.9790700528192806,1.302351471432106,1.9299299022389418,0.46304661241650796,1.5958120180969495,2.8468143939971924,1.0
336,1,336,1,-1,-0.7819353632736634,-0.8045851996262932,1.9299299022389418,0.46640301675019097,1.5958120180969495,2.522803544998169,0.0
337,1,337,1,-1,-0.14166943717854574,-0.8045851996262932,1.9299299022389418,0.46819812915301584,1.5958120180969495,5.646700859069824,0.0
338,1,338,1,1,1.1471603807332382,-0.8045851996262932,1.9299299022389418,0.39312037625716445,1.5958120180969495,4.66677188873291,0.0
339,1,339,1,-1,-2.1320786103719938,-0.8045851996262932,1.9299299022389418,0.46261762260429606,1.5958120180969495,2.4168050289154053,0.0
340,1,340,1,1,3.5065716961477396,-0.8045851996262932,1.9299299022389418,0.3997354534353254,1.5958120180969495,2.5438032150268555,0.0
341,1,341,1,1,-0.903842074288236,-0.8045851996262932,1.9299299022389418,0.387369984435304,1.5958120180969495,2.23980712890625,0.0
342,1,342,-1,1,-0.979533682547264,1.302351471432106,1.9299299022389418,0.38715776801203716,1.5958120180969495,3.061824321746826,1.0
343,1,343,-1,-1,-1.6130007782846314,1.302351471432106,1.9299299022389418,0.4640729601701953,1.5958120180969495,2.9138174057006836,1.0
344,1,344,1,-1,-0.5410582899649061,-0.8045851996262932,1.9299299022389418,0.4670783633588882,1.5958120180969495,3.003821849822998,0.0
345,1,345,-1,-1,-1.1030024901056272,1.302351471432106,1.9299299022389418,0.46550284143548937,1.5958120180969495,4.122811317443848,1.0
346,1,346,-1,-1,0.08561504365784378,1.302351471432106,1.9299299022389418,0.4688353662351254,1.5958120180969495,2.8448143005371094,1.0
347,1,347,1,-1,0.6757429525168828,-0.8045851996262932,1.9299299022389418,0.4704899067709723,1.5958120180969495,4.012819290161133,0.0
348,1,348,-1,-1,0.6692150337628546,1.302351471432106,1.9299299022389418,0.47047160445713304,1.5958120180969495,2.6108033657073975,1.0
349,1,349,1,1,-0.27541289472290553,-0.8045851996262932,1.9299299022389418,0.38913191017359045,1.5958120180969495,2.284806728363037,0.0
350,1,350,-1,-1,-1.8573447987025902,1.302351471432106,1.9299299022389418,0.463387893288246,1.5958120180969495,2.989820957183838,1.0
351,1,351,1,-1,0.12457828139090799,-0.8045851996262932,1.9299299022389418,0.46894460739330385,1.5958120180969495,1.9458110332489014,0.0
352,1,352,-1,1,0.2006137551282008,1.302351471432106,1.9299299022389418,0.3904665452188043,1.5958120180969495,2.3638057708740234,1.0
353,1,353,-1,-1,-1.0190537470490282,1.302351471432106,1.9299299022389418,0.4657382083724456,1.5958120180969495,3.494844675064087,1.0
354,1,354,1,1,0.8787486395397996,-0.8045851996262932,1.9299299022389418,0.39236783075061415,1.5958120180969495,2.483804225921631,0.0
355,1,355,-1,1,0.8884957277834609,1.302351471432106,1.9299299022389418,0.39239515864404795,1.5958120180969495,3.1648292541503906,1.0
356,1,356,-1,1,-0.2181746098409627,1.302351471432106,1.9299299022389418,0.38929238904794605,1.5958120180969495,3.1588289737701416,1.0
357,1,357,1,-1,-2.168714128500711,-0.8045851996262932,1.9299299022389418,0.4625149076693036,1.5958120180969495,3.026822805404663,0.0
358,1,358,-1,-1,-0.6986797814511005,1.302351471432106,1.9299299022389418,0.46663644027226653,1.5958120180969495,2.0298099517822266,1.0
359,1,359,1,1,1.6531684257371264,-0.8045851996262932,1.9299299022389418,0.39453907008498607,1.5958120180969495,2.8468143939971924,0.0
360,1,360,1,1,0.31375232205580383,-0.8045851996262932,1.9299299022389418,0.3907837516114172,1.5958120180969495,3.920825958251953,0.0
361,1,361,-1,1,1.0243038283624322,1.302351471432106,1.9299299022389418,0.3927759235665861,1.5958120180969495,4.601776599884033,1.0
362,1,362,-1,-1,-0.6785256464922164,1.302351471432106,1.9299299022389418,0.46669294638349057,1.5958120180969495,3.294835329055786,1.0
363,1,363,1,1,-0.16606227281126973,-0.8045851996262932,1.9299299022389418,0.3894384963117086,1.5958120180969495,2.802812337875366,0.0
364,1,364,1,-1,-0.8421743394132645,-0.8045851996262932,1.9299299022389418,0.46623412484325916,1.5958120180969495,4.547780513763428,0.0
365,1,365,-1,1,0.01958980927355536,1.302351471432106,1.9299299022389418,0.389959008713787,1.5958120180969495,2.9318184852600098,1.0
366,1,366,-1,-1,-2.538449144041561,1.302351471432106,1.9299299022389418,0.46147828228427973,1.5958120180969495,2.3938052654266357,1.0
367,1,367,1,-1,-2.343190962168892,-0.8045851996262932,1.9299299022389418,0.4620257272907169,1.5958120180969495,3.3188364505767822,0.0
368,1,368,1,-1,-1.7554206048989072,-0.8045851996262932,1.9299299022389418,0.4636736579634971,1.5958120180969495,3.627847194671631,0.0
369,1,369,-1,-1,-1.3537950941724275,1.302351471432106,1.9299299022389418,0.4647996946713897,1.5958120180969495,3.8658299446105957,1.0
370,1,370,1,1,0.2418141478717657,-0.8045851996262932,1.9299299022389418,0.39058205868438306,1.5958120180969495,2.2988064289093018,0.0
371,1,371,-1,-1,0.4729084490352087,1.302351471432106,1.9299299022389418,0.469921220045534,1.5958120180969495,3.474843740463257,1.0
372,1,372,-1,-1,-1.305166374954064,1.302351471432106,1.9299299022389418,0.4649360349222832,1.5958120180969495,2.809812545776367,1.0
373,1,373,1,1,1.8289669772588129,-0.8045851996262932,1.9299299022389418,0.3950319561614948,1.5958120180969495,3.9518237113952637,0.0
374,1,374,-1,-1,-0.8711961922123793,1.302351471432106,1.9299299022389418,0.46615275632778874,1.5958120180969495,5.016746520996094,1.0
375,1,375,1,-1,-1.5461038779323018,-0.8045851996262932,1.9299299022389418,0.4642605188870325,1.5958120180969495,3.772836685180664,0.0
376,1,376,1,1,1.0743775107063902,-0.8045851996262932,1.9299299022389418,0.39291631505794494,1.5958120180969495,2.191807746887207,0.0
377,1,377,1,-1,-1.1254752040546094,-0.8045851996262932,1.9299299022389418,0.4654398347286028,1.5958120180969495,3.1588289737701416,0.0
378,1,378,-1,1,2.0808048280606175,1.302351471432106,1.9299299022389418,0.3957380334819485,1.5958120180969495,2.4658043384552,1.0
379,1,379,1,-1,-0.10695837527762986,-0.8045851996262932,1.9299299022389418,0.46829544849361165,1.5958120180969495,2.6808066368103027,0.0
380,1,380,-1,1,2.3222182225918533,1.302351471432106,1.9299299022389418,0.3964148837734736,1.5958120180969495,2.434804677963257,1.0
381,1,381,-1,1,2.4765916028275314,1.302351471432106,1.9299299022389418,0.3968477001365388,1.5958120180969495,2.437804698944092,1.0
382,1,382,1,1,0.24477028485151875,-0.8045851996262932,1.9299299022389418,0.39059034680021204,1.5958120180969495,2.4558043479919434,0.0
383,1,383,-1,-1,-0.7997434281326207,1.302351471432106,1.9299299022389418,0.4663530883114037,1.5958120180969495,5.005747318267822,1.0
384,1,384,1,-1,-0.18074177147135673,-0.8045851996262932,1.9299299022389418,0.4680885821210129,1.5958120180969495,2.1638083457946777,0.0
385,1,385,-1,1,-0.1546019248425332,1.302351471432106,1.9299299022389418,0.3894706276682917,1.5958120180969495,3.1328277587890625,1.0
386,1,386,-1,-1,-2.300638842840999,1.302351471432106,1.9299299022389418,0.46214503058964124,1.5958120180969495,3.236832618713379,1.0
387,1,387,1,1,1.6138152288193321,-0.8045851996262932,1.9299299022389418,0.3944287355989565,1.5958120180969495,2.014810085296631,0.0
388,1,388,-1,1,0.7280581687913439,1.302351471432106,1.9299299022389418,0.3919453401541243,1.5958120180969495,3.663844585418701,1.0
389,1,389,-1,-1,-2.129716988297295,1.302351471432106,1.9299299022389418,0.462624243879776,1.5958120180969495,3.560847759246826,1.0
390,1,390,-1,-1,-1.6978897574020595,1.302351471432106,1.9299299022389418,0.46383495709511957,1.5958120180969495,2.192807912826538,1.0
391,1,391,1,1,1.6113166910256216,-0.8045851996262932,1.9299299022389418,0.39442173045312634,1.5958120180969495,2.3558058738708496,0.0
392,1,392,1,1,2.86731609799892,-0.8045851996262932,1.9299299022389418,0.39794317368711074,1.5958120180969495,3.0898256301879883,0.0
393,1,393,-1,-1,-0.21205600818277415,1.302351471432106,1.9299299022389418,0.4680007864529715,1.5958120180969495,2.3608057498931885,1.0
394,1,394,1,1,0.8097022318560246,-0.8045851996262932,1.9299299022389418,0.3921742454640137,1.5958120180969495,6.03867244720459,0.0
395,1,395,1,-1,-1.5734284705278576,-0.8045851996262932,1.9299299022389418,0.4641839089768823,1.5958120180969495,3.89882755279541,0.0
396,1,396,-1,-1,-0.9983823263027753,1.302351471432106,1.9299299022389418,0.46579616479688307,1.5958120180969495,3.9938206672668457,1.0
397,1,397,1,1,0.09496573018148713,-0.8045851996262932,1.9299299022389418,0.39017034004500656,1.5958120180969495,3.191830635070801,0.0
398,1,398,-1,1,1.5016902008971074,1.302351471432106,1.9299299022389418,0.39411437086379436,1.5958120180969495,3.50384521484375,1.0
399,1,399,1,-1,-0.5579294281360634,-0.8045851996262932,1.9299299022389418,0.4670310617797373,1.5958120180969495,3.1418280601501465,0.0
400,1,400,1,-1,-0.2982652268831646,-0.8045851996262932,1.9299299022389418,0.4677590818245982,1.5958120180969495,2.108808994293213,0.0
401,1,401,-1,1,1.08537015715793,1.302351471432106,1.9299299022389418,0.39294713512064194,1.5958120180969495,2.9328184127807617,1.0
402,1,402,-1,1,-0.6710424994763047,1.302351471432106,1.9299299022389418,0.3880226841762788,1.5958120180969495,2.6758065223693848,1.0
403,1,403,1,1,-1.1318046403328363,-0.8045851996262932,1.9299299022389418,0.38673084620693976,1.5958120180969495,3.039823532104492,0.0
404,1,404,1,1,0.7992636779452893,-0.8045851996262932,1.9299299022389418,0.39214497890955713,1.5958120180969495,1.8128122091293335,0.0
405,1,405,1,-1,-1.1333991190660797,-0.8045851996262932,1.9299299022389418,0.4654176184626166,1.5958120180969495,2.5098037719726562,0.0
406,1,406,1,1,1.465146813045614,-0.8045851996262932,1.9299299022389418,0.3940119142342911,1.5958120180969495,2.696807384490967,0.0
407,1,407,-1,1,2.427166196938132,1.302351471432106,1.9299299022389418,0.39670912621668675,1.5958120180969495,4.341795444488525,1.0
408,1,408,-1,-1,-1.4581828846180263,1.302351471432106,1.9299299022389418,0.4645070228147516,1.5958120180969495,2.6128034591674805,1.0
409,1,409,1,1,2.153079348757216,-0.8045851996262932,1.9299299022389418,0.3959406694230831,1.5958120180969495,3.033823013305664,0.0
410,1,410,-1,1,-0.23378704979807607,1.302351471432106,1.9299299022389418,0.38924861647866954,1.5958120180969495,3.019822597503662,1.0
411,1,411,-1,-1,-1.2319318421945649,1.302351471432106,1.9299299022389418,0.465141362447478,1.5958120180969495,3.4388420581817627,1.0
412,1,412,-1,-1,-0.9470594181345205,1.302351471432106,1.9299299022389418,0.46594005874039457,1.5958120180969495,5.722695350646973,1.0
413,1,413,-1,-1,-0.6586286852214088,1.302351471432106,1.9299299022389418,0.466748731457317,1.5958120180969495,2.3948051929473877,1.0
414,1,414,1,1,1.4867089721098385,-0.8045851996262932,1.9299299022389418,0.3940723680201172,1.5958120180969495,4.16480827331543,1.0
415,1,415,1,-1,-1.224333778412312,-0.8045851996262932,1.9299299022389418,0.4651626651249704,1.5958120180969495,5.281727313995361,0.0
416,1,416,1,1,-0.9086544477053302,-0.8045851996262932,1.9299299022389418,0.3873564919927798,1.5958120180969495,3.5978493690490723,0.0
417,1,417,-1,-1,-1.3527082932073993,1.302351471432106,1.9299299022389418,0.4648027417332623,1.5958120180969495,3.020822525024414,1.0
418,1,418,-1,-1,-0.5802491331949293,1.302351471432106,1.9299299022389418,0.4669684840635953,1.5958120180969495,3.3158364295959473,1.0
419,1,419,1,-1,-1.9729089144858878,-0.8045851996262932,1.9299299022389418,0.46306388638875456,1.5958120180969495,3.0678248405456543,0.0
420,1,420,1,1,0.6888443572470994,-0.8045851996262932,1.9299299022389418,0.39183539646261095,1.5958120180969495,2.6028029918670654,0.0
421,1,421,1,1,2.27794488255166,-0.8045851996262932,1.9299299022389418,0.39629075469119474,1.5958120180969495,4.207805156707764,0.0
422,1,422,1,1,2.137777549533106,-0.8045851996262932,1.9299299022389418,0.39589776779666,1.5958120180969495,2.2638068199157715,0.0
423,1,423,1,1,3.155138502810719,-0.8045851996262932,1.9299299022389418,0.39875014083565113,1.5958120180969495,2.333806037902832,0.0
424,1,424,-1,-1,0.028213115208635564,1.302351471432106,1.9299299022389418,0.4686744285536003,1.5958120180969495,3.1718297004699707,1.0
425,1,425,-1,-1,-0.5224530693652285,1.302351471432106,1.9299299022389418,0.4671305267817638,1.5958120180969495,2.8778157234191895,1.0
426,1,426,1,1,-0.09824326004025541,-0.8045851996262932,1.9299299022389418,0.3896286403534431,1.5958120180969495,2.3718056678771973,0.0
427,1,427,1,-1,0.6868524803724116,-0.8045851996262932,1.9299299022389418,0.4705210545338474,1.5958120180969495,2.715808391571045,0.0
428,1,428,-1,1,2.875723327055228,1.302351471432106,1.9299299022389418,0.3979667450197981,1.5958120180969495,3.9498238563537598,1.0
429,1,429,1,1,1.641851678233122,-0.8045851996262932,1.9299299022389418,0.3945073413407626,1.5958120180969495,3.25083327293396,0.0
430,1,430,1,-1,-0.44034473065184176,-0.8045851996262932,1.9299299022389418,0.4673607337804381,1.5958120180969495,2.6568055152893066,0.0
431,1,431,-1,-1,-1.782213242667233,1.302351471432106,1.9299299022389418,0.4635985394941204,1.5958120180969495,2.8538146018981934,1.0
432,1,432,-1,1,0.6334092322717246,1.302351471432106,1.9299299022389418,0.3916799731043786,1.5958120180969495,2.2228074073791504,1.0
433,1,433,1,-1,-1.3132145899253818,-0.8045851996262932,1.9299299022389418,0.46491347015672757,1.5958120180969495,4.309797763824463,0.0
434,1,434,1,1,3.398915096445013,-0.8045851996262932,1.9299299022389418,0.39943361682416767,1.5958120180969495,3.6148481369018555,0.0
435,1,435,1,1,1.2180969883079327,-0.8045851996262932,1.9299299022389418,0.3933192610937327,1.5958120180969495,2.1738080978393555,0.0
436,1,436,1,1,0.7239538662599474,-0.8045851996262932,1.9299299022389418,0.39193383292864376,1.5958120180969495,3.7658371925354004,0.0
437,1,437,1,-1,0.1743036034601575,-0.8045851996262932,1.9299299022389418,0.46908402218759937,1.5958120180969495,2.6828067302703857,0.0
438,1,438,-1,-1,-1.6623096648552753,1.302351471432106,1.9299299022389418,0.46393471293534355,1.5958120180969495,2.575802803039551,1.0
439,1,439,1,-1,0.34476606341642824,-0.8045851996262932,1.9299299022389418,0.4695619474739718,1.5958120180969495,2.4888041019439697,0.0
440,1,440,-1,-1,-2.054505490659615,1.302351471432106,1.9299299022389418,0.46283511421777424,1.5958120180969495,2.796812057495117,1.0
441,1,441,1,-1,-1.272524859443578,-0.8045851996262932,1.9299299022389418,0.4650275518794595,1.5958120180969495,6.0026750564575195,0.0
442,1,442,-1,1,1.7915830763152418,1.302351471432106,1.9299299022389418,0.39492714298697673,1.5958120180969495,2.6378045082092285,1.0
443,1,443,1,-1,-1.9418084765295303,-0.8045851996262932,1.9299299022389418,0.46315108262961846,1.5958120180969495,3.050823926925659,0.0
444,1,444,-1,1,1.6093717868181447,1.302351471432106,1.9299299022389418,0.3944162775287665,1.5958120180969495,3.236832618713379,1.0
445,1,445,1,-1,-0.44140395219743467,-0.8045851996262932,1.9299299022389418,0.46735776404293317,1.5958120180969495,2.9068171977996826,0.0
446,1,446,1,1,2.295201721691801,-0.8045851996262932,1.9299299022389418,0.39633913765944506,1.5958120180969495,2.1318087577819824,0.0
447,1,447,-1,1,0.8622749993820022,1.302351471432106,1.9299299022389418,0.3923216436359143,1.5958120180969495,2.8238134384155273,1.0
448,1,448,1,1,-0.2302267128205706,-0.8045851996262932,1.9299299022389418,0.38925859858892414,1.5958120180969495,2.145808458328247,0.0
449,1,449,-1,-1,-3.174791137335352,1.302351471432106,1.9299299022389418,0.4596941714046539,1.5958120180969495,2.4918041229248047,1.0
450,1,450,1,-1,-0.7753349238913173,-0.8045851996262932,1.9299299022389418,0.4664215223899829,1.5958120180969495,2.328806161880493,0.0
451,1,451,1,1,1.8599950847946172,-0.8045851996262932,1.9299299022389418,0.39511894960969124,1.5958120180969495,2.9088172912597656,0.0
452,1,452,-1,-1,-1.008919189570991,1.302351471432106,1.9299299022389418,0.4657666226126613,1.5958120180969495,2.518803596496582,1.0
453,1,453,1,-1,-1.8299226514546967,-0.8045851996262932,1.9299299022389418,0.4634647767121961,1.5958120180969495,2.8088126182556152,0.0
454,1,454,-1,-1,-0.07135620403261633,1.302351471432106,1.9299299022389418,0.4683952662358414,1.5958120180969495,4.02681827545166,1.0
455,1,455,-1,-1,1.662376885413961,1.302351471432106,1.9299299022389418,0.473256130519272,1.5958120180969495,5.220731735229492,1.0
456,1,456,1,-1,-1.246149479640511,-0.8045851996262932,1.9299299022389418,0.4651015004834442,1.5958120180969495,3.7888355255126953,0.0
457,1,457,1,-1,-1.6934207337348481,-0.8045851996262932,1.9299299022389418,0.4638474868885797,1.5958120180969495,2.788811683654785,0.0
458,1,458,1,-1,-1.6220157557840191,-0.8045851996262932,1.9299299022389418,0.4640476848943126,1.5958120180969495,4.1268110275268555,0.0
459,1,459,1,1,1.2805910222790415,-0.8045851996262932,1.9299299022389418,0.39349447550217126,1.5958120180969495,5.222731590270996,0.0
460,1,460,-1,1,1.5864038073481557,1.302351471432106,1.9299299022389418,0.3943518822468469,1.5958120180969495,3.229832172393799,1.0
461,1,461,1,1,2.575428370559314,-0.8045851996262932,1.9299299022389418,0.3971248086009741,1.5958120180969495,2.3498058319091797,0.0
462,1,462,-1,-1,-1.1562323189990813,1.302351471432106,1.9299299022389418,0.46535360106183765,1.5958120180969495,2.4118051528930664,1.0
463,1,463,1,-1,-0.8360821912260731,-0.8045851996262932,1.9299299022389418,0.4662512053879594,1.5958120180969495,3.216831684112549,0.0
464,1,464,1,1,0.5756142155160959,-0.8045851996262932,1.9299299022389418,0.3915179333218897,1.5958120180969495,2.3948051929473877,0.0
465,1,465,1,1,1.597489024146288,-0.8045851996262932,1.9299299022389418,0.39438296184885496,1.5958120180969495,6.320652008056641,0.0
466,1,466,-1,1,-0.20717663766948213,1.302351471432106,1.9299299022389418,0.3893232240423543,1.5958120180969495,3.970822334289551,1.0
467,1,467,1,1,1.8514922956095954,-0.8045851996262932,1.9299299022389418,0.39509511035524625,1.5958120180969495,2.8388140201568604,0.0
468,1,468,1,1,1.604871318296977,-0.8045851996262932,1.9299299022389418,0.39440365957342705,1.5958120180969495,2.5868027210235596,0.0
469,1,469,-1,-1,-1.5611914183172595,1.302351471432106,1.9299299022389418,0.4642182179777239,1.5958120180969495,4.008819580078125,1.0
470,1,470,1,1,0.7288520754704313,-0.8045851996262932,1.9299299022389418,0.3919475660288245,1.5958120180969495,2.5078039169311523,0.0
471,1,471,-1,1,1.7787145896881693,1.302351471432106,1.9299299022389418,0.39489106363461957,1.5958120180969495,3.3478379249572754,1.0
472,1,472,1,-1,-1.852528992675823,-0.8045851996262932,1.9299299022389418,0.46340139535477165,1.5958120180969495,2.4018051624298096,0.0
473,1,473,1,1,0.7325594909052386,-0.8045851996262932,1.9299299022389418,0.3919579605026801,1.5958120180969495,2.151808261871338,0.0
474,1,474,-1,1,-0.1736647550491892,1.302351471432106,1.9299299022389418,0.3894171812462002,1.5958120180969495,3.1708295345306396,1.0
475,1,475,-1,-1,-2.86880294514875,1.302351471432106,1.9299299022389418,0.46055206993794323,1.5958120180969495,2.2778067588806152,1.0
476,1,476,1,1,-0.18979466235624143,-0.8045851996262932,1.9299299022389418,0.38937195785466366,1.5958120180969495,2.001810312271118,0.0
477,1,477,-1,-1,0.016032091515189695,1.302351471432106,1.9299299022389418,0.4686402766398095,1.5958120180969495,2.5038037300109863,1.0
478,1,478,1,-1,-0.7373118810566242,-0.8045851996262932,1.9299299022389418,0.466528127525449,1.5958120180969495,8.93746280670166,0.0
479,1,479,1,-1,-2.611439844884485,-0.8045851996262932,1.9299299022389418,0.46127363839018226,1.5958120180969495,3.817833423614502,0.0
480,1,480,-1,1,1.370705694892188,1.302351471432106,1.9299299022389418,0.39374712984451765,1.5958120180969495,2.6168036460876465,1.0
481,1,481,-1,-1,0.12759960324829578,1.302351471432106,1.9299299022389418,0.46895307826785465,1.5958120180969495,2.694807291030884,1.0
482,1,482,-1,-1,-1.4764954651269169,1.302351471432106,1.9299299022389418,0.4644556798663618,1.5958120180969495,2.986820936203003,1.0
483,1,483,-1,1,2.5828847288004226,1.302351471432106,1.9299299022389418,0.39714571397890064,1.5958120180969495,2.773810863494873,1.0
484,1,484,-1,-1,-1.0305502117571255,1.302351471432106,1.9299299022389418,0.4657059757554266,1.5958120180969495,3.041823387145996,1.0
485,1,485,-1,-1,-0.09058845242957658,1.302351471432106,1.9299299022389418,0.46834134481628037,1.5958120180969495,3.1488285064697266,1.0
486,1,486,-1,-1,0.13074831717874824,1.302351471432106,1.9299299022389418,0.4689619063113271,1.5958120180969495,3.500844955444336,1.0
487,1,487,1,-1,-1.349993918600112,-0.8045851996262932,1.9299299022389418,0.4648103520203709,1.5958120180969495,3.486844301223755,0.0
488,1,488,-1,-1,-0.9819001475373337,1.302351471432106,1.9299299022389418,0.4658423758512615,1.5958120180969495,5.333723545074463,1.0
489,1,489,1,1,1.7239597292362334,-0.8045851996262932,1.9299299022389418,0.3947375475327841,1.5958120180969495,3.77083683013916,0.0
490,1,490,-1,1,1.4182088496218916,1.302351471432106,1.9299299022389418,0.3938803143523184,1.5958120180969495,4.490784645080566,1.0
491,1,491,-1,1,1.998057969104768,1.302351471432106,1.9299299022389418,0.39550603626524145,1.5958120180969495,2.801812171936035,1.0
492,1,492,-1,1,0.724265831338032,1.302351471432106,1.9299299022389418,0.3919347075845611,1.5958120180969495,2.6098031997680664,1.0
493,1,493,1,-1,-1.1542898689848728,-0.8045851996262932,1.9299299022389418,0.4653590471053803,1.5958120180969495,4.185806751251221,0.0
494,1,494,-1,-1,-0.595874005410842,1.302351471432106,1.9299299022389418,0.4669246766380176,1.5958120180969495,2.6218037605285645,1.0
495,1,495,-1,-1,-1.4314971399214365,1.302351471432106,1.9299299022389418,0.4645818415882191,1.5958120180969495,2.3458058834075928,1.0
496,1,496,-1,1,0.9658506498579527,1.302351471432106,1.9299299022389418,0.3926120384972089,1.5958120180969495,2.782811403274536,1.0
497,1,497,-1,-1,-2.643278479317227,1.302351471432106,1.9299299022389418,0.4611843724692113,1.5958120180969495,3.52984619140625,1.0
498,1,498,1,1,0.4287571499634889,-0.8045851996262932,1.9299299022389418,0.39110619043651745,1.5958120180969495,2.1628081798553467,0.0
499,1,499,-1,1,0.3048321843684987,1.302351471432106,1.9299299022389418,0.3907587422377417,1.5958120180969495,4.342795372009277,1.0
500,2,0,-1,1,1.5944295665273962,0.6303965106222843,2.045869954739832,0.49980081380670194,1.5882374541777367,3.689267635345459,1.0
501,2,1,-1,-1,-1.0352227282950772,0.6303965106222843,2.045869954739832,0.38104375169993787,1.5882374541777367,3.5582733154296875,1.0
502,2,2,-1,1,1.007530569891185,0.6303965106222843,2.045869954739832,0.4996029205986946,1.5882374541777367,2.3142316341400146,1.0
503,2,3,-1,1,1.796181748093156,0.6303965106222843,2.045869954739832,0.4998688415025429,1.5882374541777367,2.8072383403778076,1.0
504,2,4,-1,-1,-2.042367945460059,0.6303965106222843,2.045869954739832,0.38070415800648055,1.5882374541777367,3.38726544380188,0.0
505,2,5,-1,1,-0.5314213042630349,0.6303965106222843,2.045869954739832,0.4990840099767803,1.5882374541777367,3.153254508972168,0.0
506,2,6,-1,1,2.257065239002057,0.6303965106222843,2.045869954739832,0.5000242442431445,1.5882374541777367,4.679195880889893,1.0
507,2,7,1,-1,-0.4826894266573002,-0.36460525235938623,2.045869954739832,0.38123005733041043,1.5882374541777367,3.8012595176696777,0.0
508,2,8,-1,1,0.05692894669544735,0.6303965106222843,2.045869954739832,0.49928239252515993,1.5882374541777367,3.6412711143493652,1.0
509,2,9,1,-1,-0.1017779719747568,-0.36460525235938623,2.045869954739832,0.38135849474496714,1.5882374541777367,2.1782333850860596,0.0
510,2,10,-1,1,2.3728758790033666,0.6303965106222843,2.045869954739832,0.5000632937886414,1.5882374541777367,7.415997505187988,0.0
511,2,11,1,-1,-0.3263460199710889,-0.36460525235938623,2.045869954739832,0.38128277389403936,1.5882374541777367,6.2170844078063965,0.0
512,2,12,-1,-1,-1.2843196836636717,0.6303965106222843,2.045869954739832,0.38095976008317706,1.5882374541777367,2.958245277404785,1.0
513,2,13,-1,-1,-0.6843673102724224,0.6303965106222843,2.045869954739832,0.38116205468668213,1.5882374541777367,8.77389907836914,1.0
514,2,14,1,-1,-1.5263733183296149,-0.36460525235938623,2.045869954739832,0.380878143364545,1.5882374541777367,3.3542637825012207,0.0
515,2,15,-1,-1,-1.5277091141256913,0.6303965106222843,2.045869954739832,0.380877692954991,1.5882374541777367,8.411925315856934,1.0
516,2,16,1,-1,-0.19001958276792963,-0.36460525235938623,2.045869954739832,0.38132874104707415,1.5882374541777367,4.439213275909424,0.0
517,2,17,1,1,-1.1267398477422468,-0.36460525235938623,2.045869954739832,0.4988832778286073,1.5882374541777367,5.088166236877441,0.0
518,2,18,-1,-1,0.2683058991788796,0.6303965106222843,2.045869954739832,0.38148328126686293,1.5882374541777367,3.38726544380188,0.0
519,2,19,1,1,2.2830102332754048,-0.36460525235938623,2.045869954739832,0.5000329924914426,1.5882374541777367,3.2512590885162354,1.0
520,2,20,-1,-1,-1.6977320467617996,0.6303965106222843,2.045869954739832,0.38082036386810036,1.5882374541777367,4.582202911376953,1.0
521,2,21,1,-1,-1.4498637964832295,-0.36460525235938623,2.045869954739832,0.3809039411846266,1.5882374541777367,3.226257801055908,0.0
522,2,22,-1,1,0.6251008075488899,0.6303965106222843,2.045869954739832,0.4994739712344238,1.5882374541777367,4.407215595245361,1.0
523,2,23,-1,-1,-1.7130725057457616,0.6303965106222843,2.045869954739832,0.380815191304068,1.5882374541777367,6.190086364746094,1.0
524,2,24,-1,1,1.5205766887353716,0.6303965106222843,2.045869954739832,0.4997759117656513,1.5882374541777367,7.601984024047852,1.0
525,2,25,-1,-1,-1.8098511363285716,0.6303965106222843,2.045869954739832,0.38078255905596,1.5882374541777367,3.398265838623047,1.0
526,2,26,1,1,0.2479798589508111,-0.36460525235938623,2.045869954739832,0.4993468119195287,1.5882374541777367,2.4472298622131348,0.0
527,2,27,-1,1,-0.35761141798609697,0.6303965106222843,2.045869954739832,0.4991426159655039,1.5882374541777367,3.193256378173828,1.0
528,2,28,1,1,1.9190794446072896,-0.36460525235938623,2.045869954739832,0.49991028069320315,1.5882374541777367,3.3542637825012207,0.0
529,2,29,-1,-1,-1.5254926917453426,0.6303965106222843,2.045869954739832,0.38087844029812445,1.5882374541777367,4.406215667724609,1.0
530,2,30,-1,-1,-0.90459093855588,0.6303965106222843,2.045869954739832,0.3810877987064712,1.5882374541777367,6.01409912109375,1.0
531,2,31,1,1,1.3453603360477424,-0.36460525235938623,2.045869954739832,0.49971683153834223,1.5882374541777367,4.572203636169434,0.0
532,2,32,1,1,2.1787292738818245,-0.36460525235938623,2.045869954739832,0.49999783057481517,1.5882374541777367,2.4992291927337646,0.0
533,2,33,-1,-1,-2.696259733851204,0.6303965106222843,2.045869954739832,0.38048367587167364,1.5882374541777367,2.304231643676758,0.0
534,2,34,-1,1,1.769881765826646,0.6303965106222843,2.045869954739832,0.499859973557818,1.5882374541777367,3.733264446258545,1.0
535,2,35,-1,1,2.301125332740827,0.6303965106222843,2.045869954739832,0.5000391006210648,1.5882374541777367,3.608273506164551,1.0
536,2,36,1,1,2.689042894575829,-0.36460525235938623,2.045869954739832,0.5001699003859204,1.5882374541777367,8.69290542602539,1.0
537,2,37,-1,-1,-1.282191824858129,0.6303965106222843,2.045869954739832,0.3809604775640513,1.5882374541777367,2.4042305946350098,0.0
538,2,38,1,-1,-0.9077818289527423,-0.36460525235938623,2.045869954739832,0.38108672278788785,1.5882374541777367,6.520062446594238,1.0
539,2,39,-1,-1,-1.1902077568377392,0.6303965106222843,2.045869954739832,0.3809914931602791,1.5882374541777367,3.137253761291504,1.0
540,2,40,1,1,1.937669846558752,-0.36460525235938623,2.045869954739832,0.49991654908742666,1.5882374541777367,3.685267925262451,0.0
541,2,41,1,-1,-1.2293381997074389,-0.36460525235938623,2.045869954739832,0.3809782989839138,1.5882374541777367,6.121091365814209,0.0
542,2,42,-1,1,0.5230726183175842,0.6303965106222843,2.045869954739832,0.4994395689168361,1.5882374541777367,6.378072738647461,1.0
543,2,43,1,1,0.6881600415560901,-0.36460525235938623,2.045869954739832,0.4994952338267671,1.5882374541777367,13.085253715515137,0.0
544,2,44,-1,-1,-0.8722580494595914,0.6303965106222843,2.045869954739832,0.3810987008534915,1.5882374541777367,5.944104194641113,1.0
545,2,45,-1,-1,-2.895282665364358,0.6303965106222843,2.045869954739832,0.38041656843647625,1.5882374541777367,2.1452338695526123,0.0
546,2,46,-1,1,1.2837474795661683,0.6303965106222843,2.045869954739832,0.49969605664199124,1.5882374541777367,2.5872280597686768,1.0
547,2,47,-1,-1,-0.2357222322222422,0.6303965106222843,2.045869954739832,0.38131333082492896,1.5882374541777367,4.068240165710449,1.0
548,2,48,-1,-1,-2.6569358021554694,0.6303965106222843,2.045869954739832,0.3804969352894599,1.5882374541777367,2.3102316856384277,0.0
549,2,49,-1,1,3.5487946131587225,0.6303965106222843,2.045869954739832,0.5004597952854778,1.5882374541777367,3.5212717056274414,1.0
550,2,50,-1,-1,-1.931810282549649,0.6303965106222843,2.045869954739832,0.3807414363298523,1.5882374541777367,6.043097019195557,1.0
551,2,51,-1,1,-0.07046654276561637,0.6303965106222843,2.045869954739832,0.49923943674871524,1.5882374541777367,4.066240310668945,1.0
552,2,52,1,-1,0.3253992623007995,-0.36460525235938623,2.045869954739832,0.38150253226038805,1.5882374541777367,5.099165439605713,0.0
553,2,53,1,1,1.6297300266495816,-0.36460525235938623,2.045869954739832,0.49981271657248916,1.5882374541777367,5.484137535095215,1.0
554,2,54,1,1,0.5538355853139524,-0.36460525235938623,2.045869954739832,0.49944994171055634,1.5882374541777367,4.3182220458984375,0.0
555,2,55,1,1,1.1023934557636246,-0.36460525235938623,2.045869954739832,0.4996349068875002,1.5882374541777367,3.0182480812072754,0.0
556,2,56,-1,-1,-1.0352001284007175,0.6303965106222843,2.045869954739832,0.3810437593202705,1.5882374541777367,3.7052664756774902,1.0
557,2,57,1,1,0.626143792126635,-0.36460525235938623,2.045869954739832,0.49947432291259186,1.5882374541777367,3.375264883041382,1.0
558,2,58,-1,-1,-2.1582701505268775,0.6303965106222843,2.045869954739832,0.38066507758666857,1.5882374541777367,4.110237121582031,1.0
559,2,59,1,1,-0.8980083091564914,-0.36460525235938623,2.045869954739832,0.49896040254376717,1.5882374541777367,4.353219509124756,0.0
560,2,60,-1,1,1.9336579597431753,0.6303965106222843,2.045869954739832,0.49991519634162773,1.5882374541777367,3.0942516326904297,1.0
561,2,61,1,1,-0.14725584571104378,-0.36460525235938623,2.045869954739832,0.49921354459080114,1.5882374541777367,5.33314847946167,0.0
562,2,62,1,1,0.40084845489326604,-0.36460525235938623,2.045869954739832,0.4993983568310518,1.5882374541777367,3.2662596702575684,0.0
563,2,63,-1,1,1.5400259477292524,0.6303965106222843,2.045869954739832,0.4997824697531035,1.5882374541777367,9.705887794494629,1.0
564,2,64,1,-1,0.7191793879833566,-0.36460525235938623,2.045869954739832,0.38163530879053637,1.5882374541777367,10.296126365661621,0.0
565,2,65,-1,-1,-2.0110309382184752,0.6303965106222843,2.045869954739832,0.380714724357638,1.5882374541777367,10.172076225280762,0.0
566,2,66,-1,-1,-0.3817183106237956,0.6303965106222843,2.045869954739832,0.38126410321936655,1.5882374541777367,2.8132386207580566,1.0
567,2,67,-1,1,1.808563365471286,0.6303965106222843,2.045869954739832,0.499873016391233,1.5882374541777367,2.673232078552246,1.0
568,2,68,1,1,2.648946460667809,-0.36460525235938623,2.045869954739832,0.5001563804924102,1.5882374541777367,3.962247848510742,0.0
569,2,69,-1,1,-0.27819980327002436,0.6303965106222843,2.045869954739832,0.4991693923261371,1.5882374541777367,3.2912609577178955,1.0
570,2,70,-1,-1,-1.6236845199483656,0.6303965106222843,2.045869954739832,0.38084533154177186,1.5882374541777367,5.903107166290283,1.0
571,2,71,-1,1,1.7097325382166806,0.6303965106222843,2.045869954739832,0.4998396921743447,1.5882374541777367,4.016243934631348,1.0
572,2,72,1,1,1.8053085549975414,-0.36460525235938623,2.045869954739832,0.4998719189197945,1.5882374541777367,2.247232437133789,0.0
573,2,73,1,-1,-1.3314360176336646,-0.36460525235938623,2.045869954739832,0.3809438731886138,1.5882374541777367,4.185231685638428,1.0
574,2,74,1,-1,-1.8190187447381754,-0.36460525235938623,2.045869954739832,0.3807794678810758,1.5882374541777367,4.648198127746582,0.0
575,2,75,-1,1,-0.13487325269262107,0.6303965106222843,2.045869954739832,0.49921771980846197,1.5882374541777367,2.0772347450256348,1.0
576,2,76,1,1,-0.08155043308809562,-0.36460525235938623,2.045869954739832,0.49923569943339235,1.5882374541777367,4.77018928527832,0.0
577,2,77,1,1,1.498515118877401,-0.36460525235938623,2.045869954739832,0.49976847294762994,1.5882374541777367,3.368264675140381,0.0
578,2,78,-1,1,0.985555677510335,0.6303965106222843,2.045869954739832,0.49959551100696964,1.5882374541777367,2.945244789123535,1.0
579,2,79,-1,1,1.123295888704758,0.6303965106222843,2.045869954739832,0.49964195486259233,1.5882374541777367,2.394230604171753,1.0
580,2,80,-1,1,1.504382430933096,0.6303965106222843,2.045869954739832,0.49977045131394465,1.5882374541777367,4.201230525970459,1.0
581,2,81,-1,-1,-2.124879711451142,0.6303965106222843,2.045869954739832,0.38067633632308373,1.5882374541777367,6.103092670440674,1.0
582,2,82,-1,1,1.6724405638605453,0.6303965106222843,2.045869954739832,0.49982711790095086,1.5882374541777367,3.414266586303711,1.0
583,2,83,1,1,-0.19056619260856378,-0.36460525235938623,2.045869954739832,0.4991989410158477,1.5882374541777367,5.696122169494629,0.0
584,2,84,-1,1,1.8546694123845586,0.6303965106222843,2.045869954739832,0.49988856263272347,1.5882374541777367,2.7872374057769775,1.0
585,2,85,-1,1,-1.3666790591726912,0.6303965106222843,2.045869954739832,0.49880237406058436,1.5882374541777367,2.4242300987243652,1.0
586,2,86,1,-1,-1.5173313411073015,-0.36460525235938623,2.045869954739832,0.380881192178548,1.5882374541777367,5.488137245178223,0.0
587,2,87,-1,-1,-2.2075663946914927,0.6303965106222843,2.045869954739832,0.38064845566031263,1.5882374541777367,3.8112587928771973,0.0
588,2,88,1,1,-0.631024560789609,-0.36460525235938623,2.045869954739832,0.4990504253087625,1.5882374541777367,3.2392585277557373,0.0
589,2,89,1,-1,-0.9193396651979565,-0.36460525235938623,2.045869954739832,0.3810828256653756,1.5882374541777367,1.926236629486084,0.0
590,2,90,-1,1,-0.9984092073672708,0.6303965106222843,2.045869954739832,0.4989265489233868,1.5882374541777367,4.910179138183594,1.0
591,2,91,1,1,-0.6770245816851759,-0.36460525235938623,2.045869954739832,0.49903491481759515,1.5882374541777367,6.140089988708496,1.0
592,2,92,1,-1,-2.4074184890487733,-0.36460525235938623,2.045869954739832,0.38058106864430813,1.5882374541777367,4.416214942932129,0.0
593,2,93,-1,1,1.2962060236634314,0.6303965106222843,2.045869954739832,0.4997002574691738,1.5882374541777367,5.075167179107666,0.0
594,2,94,1,-1,-2.8400805522327905,-0.36460525235938623,2.045869954739832,0.3804351817299373,1.5882374541777367,11.498612403869629,0.0
595,2,95,-1,1,1.0899519467126724,0.6303965106222843,2.045869954739832,0.4996307118042701,1.5882374541777367,3.444268226623535,1.0
596,2,96,-1,1,0.600137833080137,0.6303965106222843,2.045869954739832,0.499465554107921,1.5882374541777367,2.429230213165283,1.0
597,2,97,-1,1,-0.2887310252455271,0.6303965106222843,2.045869954739832,0.4991658413619799,1.5882374541777367,10.587244033813477,1.0
598,2,98,-1,1,0.3462804941286436,0.6303965106222843,2.045869954739832,0.4993799573638999,1.5882374541777367,7.519989967346191,1.0
599,2,99,-1,1,0.2984597277299551,0.6303965106222843,2.045869954739832,0.49936383294568437,1.5882374541777367,4.902179718017578,1.0
600,2,100,1,-1,-1.0196492828975483,-0.36460525235938623,2.045869954739832,0.381049002823363,1.5882374541777367,4.882181167602539,0.0
601,2,101,1,-1,0.11147295991783812,-0.36460525235938623,2.045869954739832,0.38143039964046815,1.5882374541777367,4.310222625732422,0.0
602,2,102,1,1,1.3743403109116963,-0.36460525235938623,2.045869954739832,0.4997266031348634,1.5882374541777367,9.456850051879883,0.0
603,2,103,1,1,-0.948897448166611,-0.36460525235938623,2.045869954739832,0.4989432435180589,1.5882374541777367,3.092251777648926,0.0
604,2,104,1,1,0.39847019553080876,-0.36460525235938623,2.045869954739832,0.49939755491900667,1.5882374541777367,4.372218132019043,0.0
605,2,105,1,1,-0.29050415831576437,-0.36460525235938623,2.045869954739832,0.4991652434891031,1.5882374541777367,9.535843849182129,0.0
606,2,106,1,1,1.8405274839117614,-0.36460525235938623,2.045869954739832,0.4998837941945272,1.5882374541777367,2.3612310886383057,0.0
607,2,107,1,-1,-2.01305336162321,-0.36460525235938623,2.045869954739832,0.38071404242794005,1.5882374541777367,3.800259590148926,0.0
608,2,108,-1,-1,-0.974400866822704,0.6303965106222843,2.045869954739832,0.3810642598850817,1.5882374541777367,3.450268268585205,0.0
609,2,109,-1,-1,-1.6485273642422467,0.6303965106222843,2.045869954739832,0.3808369549212945,1.5882374541777367,2.7412352561950684,1.0
610,2,110,1,1,2.0861372841047388,-0.36460525235938623,2.045869954739832,0.4999666099968319,1.5882374541777367,3.8652548789978027,0.0
611,2,111,1,-1,-1.274425378043734,-0.36460525235938623,2.045869954739832,0.3809630962890513,1.5882374541777367,2.3302314281463623,0.0
612,2,112,-1,-1,-2.4819271113838672,0.6303965106222843,2.045869954739832,0.3805559454964026,1.5882374541777367,11.108454704284668,1.0
613,2,113,1,1,1.4172327691433957,-0.36460525235938623,2.045869954739832,0.49974106580426214,1.5882374541777367,9.811930656433105,0.0
614,2,114,-1,-1,-0.9239954334203864,0.6303965106222843,2.045869954739832,0.38108125581278673,1.5882374541777367,2.930243968963623,1.0
615,2,115,-1,-1,0.9596248989383438,0.6303965106222843,2.045869954739832,0.3817163832748796,1.5882374541777367,6.701049327850342,1.0
616,2,116,1,-1,-0.16080654483385404,-0.36460525235938623,2.045869954739832,0.3813385912288355,1.5882374541777367,5.295151233673096,0.0
617,2,117,-1,1,1.1280460311016038,0.6303965106222843,2.045869954739832,0.4996435565366841,1.5882374541777367,2.628230094909668,1.0
618,2,118,1,-1,-2.0975147374443877,-0.36460525235938623,2.045869954739832,0.38068556336644943,1.5882374541777367,4.455212116241455,0.0
619,2,119,-1,-1,-1.6990583038299034,0.6303965106222843,2.045869954739832,0.380819916674857,1.5882374541777367,3.3022613525390625,1.0
620,2,120,1,1,0.9915461043586302,-0.36460525235938623,2.045869954739832,0.4995975308856764,1.5882374541777367,9.674875259399414,1.0
621,2,121,-1,1,2.1408275006600492,0.6303965106222843,2.045869954739832,0.4999850506867339,1.5882374541777367,7.59098482131958,1.0
622,2,122,-1,-1,-0.40389567006170646,0.6303965106222843,2.045869954739832,0.38125662535890087,1.5882374541777367,4.312222480773926,1.0
623,2,123,1,-1,-0.9433387298339391,-0.36460525235938623,2.045869954739832,0.3810747335542676,1.5882374541777367,2.7882375717163086,0.0
624,2,124,1,1,1.3197758880296604,-0.36460525235938623,2.045869954739832,0.4997082048606304,1.5882374541777367,4.152234077453613,1.0
625,2,125,1,-1,0.2769133972928437,-0.36460525235938623,2.045869954739832,0.3814861835812722,1.5882374541777367,3.434267520904541,0.0
626,2,126,-1,1,0.5001056928602337,0.6303965106222843,2.045869954739832,0.49943182482699633,1.5882374541777367,2.253232479095459,1.0
627,2,127,-1,-1,-1.7141921005054823,0.6303965106222843,2.045869954739832,0.3808148137941388,1.5882374541777367,3.6522703170776367,1.0
628,2,128,1,-1,-1.2729450783980958,-0.36460525235938623,2.045869954739832,0.3809635954230545,1.5882374541777367,2.2312326431274414,0.0
629,2,129,-1,-1,0.08418943473175045,0.6303965106222843,2.045869954739832,0.3814212000603773,1.5882374541777367,6.91503381729126,1.0
630,2,130,-1,-1,-1.5045043487233292,0.6303965106222843,2.045869954739832,0.3808855172407588,1.5882374541777367,5.3201494216918945,1.0
631,2,131,-1,-1,-0.542391752444054,0.6303965106222843,2.045869954739832,0.3812099266352769,1.5882374541777367,5.460139274597168,1.0
632,2,132,-1,-1,-2.6723837534277655,0.6303965106222843,2.045869954739832,0.38049172648070073,1.5882374541777367,4.038242340087891,1.0
633,2,133,-1,1,2.0793405715649316,0.6303965106222843,2.045869954739832,0.4999643182511378,1.5882374541777367,3.5782742500305176,1.0
634,2,134,1,-1,-0.24725365445197456,-0.36460525235938623,2.045869954739832,0.3813094426088117,1.5882374541777367,5.984101295471191,0.0
635,2,135,-1,1,0.7533957736695809,0.6303965106222843,2.045869954739832,0.4995172303003999,1.5882374541777367,4.205230236053467,1.0
636,2,136,1,-1,-0.4594150841811563,-0.36460525235938623,2.045869954739832,0.3812379050764847,1.5882374541777367,3.159254789352417,0.0
637,2,137,-1,-1,-0.06837778633222213,0.6303965106222843,2.045869954739832,0.38136975676777296,1.5882374541777367,3.727264881134033,1.0
638,2,138,-1,1,0.5456326772757429,0.6303965106222843,2.045869954739832,0.4994471758176242,1.5882374541777367,5.184159278869629,1.0
639,2,139,1,1,-0.35950423800029774,-0.36460525235938623,2.045869954739832,0.49914197773605223,1.5882374541777367,4.998172760009766,0.0
640,2,140,1,1,1.8254670023487671,-0.36460525235938623,2.045869954739832,0.499878716034524,1.5882374541777367,3.2502589225769043,1.0
641,2,141,-1,-1,-2.0984717219943363,0.6303965106222843,2.045869954739832,0.38068524068615234,1.5882374541777367,3.440268039703369,1.0
642,2,142,1,1,1.6126836402927678,-0.36460525235938623,2.045869954739832,0.49980696879629527,1.5882374541777367,3.9532485008239746,0.0
643,2,143,-1,-1,0.23890070112889572,0.6303965106222843,2.045869954739832,0.38147336629170103,1.5882374541777367,3.604273796081543,1.0
644,2,144,1,1,2.769714239905512,-0.36460525235938623,2.045869954739832,0.5001971015081118,1.5882374541777367,2.8432400226593018,0.0
645,2,145,-1,1,1.8365603865198126,0.6303965106222843,2.045869954739832,0.49988245655102487,1.5882374541777367,5.349147319793701,1.0
646,2,146,-1,1,1.6534918478993785,0.6303965106222843,2.045869954739832,0.49982072868881955,1.5882374541777367,4.280224800109863,1.0
647,2,147,-1,-1,-0.5556509979022084,0.6303965106222843,2.045869954739832,0.3812054558240564,1.5882374541777367,6.679050922393799,1.0
648,2,148,-1,1,-0.1780461176626098,0.6303965106222843,2.045869954739832,0.4992031625902749,1.5882374541777367,3.2532591819763184,1.0
649,2,149,-1,1,0.9309409480515894,0.6303965106222843,2.045869954739832,0.4995770957701418,1.5882374541777367,7.844966411590576,1.0
650,2,150,-1,1,1.6093896073472378,0.6303965106222843,2.045869954739832,0.49980585809964967,1.5882374541777367,2.4282302856445312,0.0
651,2,151,-1,1,2.2962289178513133,0.6303965106222843,2.045869954739832,0.5000374496261649,1.5882374541777367,2.4852294921875,1.0
652,2,152,-1,-1,-1.7851814570142577,0.6303965106222843,2.045869954739832,0.38079087728790106,1.5882374541777367,6.391071796417236,1.0
653,2,153,1,1,-0.029369251575656508,-0.36460525235938623,2.045869954739832,0.4992532941157249,1.5882374541777367,2.5522284507751465,0.0
654,2,154,-1,-1,-0.5578360773414655,0.6303965106222843,2.045869954739832,0.38120471904927494,1.5882374541777367,2.492229461669922,1.0
655,2,155,1,-1,-0.5762641654110543,-0.36460525235938623,2.045869954739832,0.38119850538476635,1.5882374541777367,5.7911152839660645,0.0
656,2,156,1,-1,1.2115456868032375,-0.36460525235938623,2.045869954739832,0.38180132704401204,1.5882374541777367,6.279079914093018,0.0
657,2,157,-1,-1,-0.867320875596092,0.6303965106222843,2.045869954739832,0.38110036559168314,1.5882374541777367,5.250154495239258,1.0
658,2,158,1,1,2.6885228358023108,-0.36460525235938623,2.045869954739832,0.5001697250301953,1.5882374541777367,2.4672296047210693,0.0
659,2,159,-1,-1,-3.1953073502466305,0.6303965106222843,2.045869954739832,0.38031540478188997,1.5882374541777367,7.463994026184082,1.0
660,2,160,-1,-1,-0.899976041609926,0.6303965106222843,2.045869954739832,0.3810893547779017,1.5882374541777367,6.319077014923096,1.0
661,2,161,1,1,0.22344113683405142,-0.36460525235938623,2.045869954739832,0.4993385378443166,1.5882374541777367,7.322004318237305,0.0
662,2,162,-1,1,1.192963876546208,0.6303965106222843,2.045869954739832,0.49966544582387934,1.5882374541777367,5.558132171630859,1.0
663,2,163,1,-1,-1.4889670546361544,-0.36460525235938623,2.045869954739832,0.3808907561745248,1.5882374541777367,2.631230115890503,0.0
664,2,164,-1,1,1.1406702454528956,0.6303965106222843,2.045869954739832,0.4996478132252981,1.5882374541777367,5.394144058227539,0.0
665,2,165,-1,-1,-0.2906540179813534,0.6303965106222843,2.045869954739832,0.38129480868165094,1.5882374541777367,6.2380828857421875,1.0
666,2,166,1,1,0.2434692070037845,-0.36460525235938623,2.045869954739832,0.4993452909978895,1.5882374541777367,3.3552639484405518,0.0
667,2,167,-1,-1,-0.271268973676389,0.6303965106222843,2.045869954739832,0.3813013450169094,1.5882374541777367,2.7342348098754883,1.0
668,2,168,-1,-1,1.0405924385163536,0.6303965106222843,2.045869954739832,0.38174368426916205,1.5882374541777367,5.572131156921387,1.0
669,2,169,1,-1,-1.7478893290673956,-0.36460525235938623,2.045869954739832,0.38080345161308327,1.5882374541777367,4.6162004470825195,0.0
670,2,170,-1,-1,-1.1567980246844252,0.6303965106222843,2.045869954739832,0.3810027584020198,1.5882374541777367,4.101237773895264,1.0
671,2,171,1,1,2.0905145330058827,-0.36460525235938623,2.045869954739832,0.4999680859370401,1.5882374541777367,2.650230884552002,0.0
672,2,172,1,1,1.3237394232036008,-0.36460525235938623,2.045869954739832,0.4997095413030082,1.5882374541777367,6.097093105316162,0.0
673,2,173,-1,-1,-1.3399262052549799,0.6303965106222843,2.045869954739832,0.38094101042947703,1.5882374541777367,4.026243209838867,1.0
674,2,174,1,1,1.0159368281084684,-0.36460525235938623,2.045869954739832,0.4996057550581424,1.5882374541777367,4.696194648742676,1.0
675,2,175,-1,-1,-1.3052735930072008,0.6303965106222843,2.045869954739832,0.38095269475104315,1.5882374541777367,5.008172035217285,1.0
676,2,176,1,-1,-2.720659274448069,-0.36460525235938623,2.045869954739832,0.380475448726304,1.5882374541777367,5.131163120269775,0.0
677,2,177,1,-1,-0.37064572923763717,-0.36460525235938623,2.045869954739832,0.3812678367214921,1.5882374541777367,3.3502635955810547,0.0
678,2,178,-1,-1,-1.6057995478410865,0.6303965106222843,2.045869954739832,0.3808513620760302,1.5882374541777367,3.2652597427368164,1.0
679,2,179,1,-1,-0.5671684272739728,-0.36460525235938623,2.045869954739832,0.38120157232611307,1.5882374541777367,3.8112587928771973,0.0
680,2,180,1,1,2.5207912034521973,-0.36460525235938623,2.045869954739832,0.5001131685341026,1.5882374541777367,2.8282394409179688,1.0
681,2,181,-1,1,1.724836614923357,0.6303965106222843,2.045869954739832,0.4998447850339519,1.5882374541777367,13.68749713897705,1.0
682,2,182,1,1,2.259983947926357,-0.36460525235938623,2.045869954739832,0.5000252283863712,1.5882374541777367,10.069034576416016,0.0
683,2,183,-1,-1,0.3156624260672163,0.6303965106222843,2.045869954739832,0.3814992491507403,1.5882374541777367,2.39223051071167,0.0
684,2,184,1,1,0.4184347279323535,-0.36460525235938623,2.045869954739832,0.49940428664863296,1.5882374541777367,3.5642738342285156,0.0
685,2,185,1,-1,-0.7299086100335872,-0.36460525235938623,2.045869954739832,0.3811466988691425,1.5882374541777367,3.5852746963500977,1.0
686,2,186,1,1,2.080060041874752,-0.36460525235938623,2.045869954739832,0.4999645608453295,1.5882374541777367,5.175159931182861,0.0
687,2,187,-1,-1,-0.14677124713321565,0.6303965106222843,2.045869954739832,0.38134332371279483,1.5882374541777367,4.690195083618164,1.0
688,2,188,-1,1,-0.19047482569639507,0.6303965106222843,2.045869954739832,0.4991989718233486,1.5882374541777367,3.465269088745117,1.0
689,2,189,1,1,1.2070563127047638,-0.36460525235938623,2.045869954739832,0.4996701975740374,1.5882374541777367,10.640265464782715,0.0
690,2,190,1,1,0.5017065116296024,-0.36460525235938623,2.045869954739832,0.4994323645981725,1.5882374541777367,3.190256118774414,0.0
691,2,191,1,1,-0.2522387129818613,-0.36460525235938623,2.045869954739832,0.4991781460017609,1.5882374541777367,4.4042158126831055,0.0
692,2,192,-1,1,-0.16583559305167817,0.6303965106222843,2.045869954739832,0.49920727978914653,1.5882374541777367,2.7262344360351562,1.0
693,2,193,1,1,1.8785360024440574,-0.36460525235938623,2.045869954739832,0.499896610075466,1.5882374541777367,4.859182834625244,1.0
694,2,194,-1,1,-0.9977341293981588,0.6303965106222843,2.045869954739832,0.498926776549172,1.5882374541777367,3.4872701168060303,1.0
695,2,195,-1,-1,-0.29762294884093277,0.6303965106222843,2.045869954739832,0.38129245886661955,1.5882374541777367,6.190086364746094,1.0
696,2,196,-1,1,3.1644756837872605,0.6303965106222843,2.045869954739832,0.500330208923485,1.5882374541777367,2.386230707168579,1.0
697,2,197,1,1,-0.6406489681357119,-0.36460525235938623,2.045869954739832,0.4990471801083859,1.5882374541777367,2.0812346935272217,0.0
698,2,198,-1,-1,-1.45808604640451,0.6303965106222843,2.045869954739832,0.38090116876991253,1.5882374541777367,3.2582592964172363,0.0
699,2,199,1,1,0.8502230322647011,-0.36460525235938623,2.045869954739832,0.49954987894511693,1.5882374541777367,2.7472355365753174,0.0
700,2,200,1,-1,-2.535197130328067,-0.36460525235938623,2.045869954739832,0.38053798367503316,1.5882374541777367,4.14523458480835,1.0
701,2,201,-1,1,0.25792072789271026,0.6303965106222843,2.045869954739832,0.4993501638258304,1.5882374541777367,3.436267852783203,1.0
702,2,202,1,-1,-1.6327757060632484,-0.36460525235938623,2.045869954739832,0.38084226613529615,1.5882374541777367,7.473993301391602,0.0
703,2,203,1,1,1.815469392633453,-0.36460525235938623,2.045869954739832,0.4998753449961165,1.5882374541777367,16.28854751586914,0.0
704,2,204,1,-1,-0.6157911174041084,-0.36460525235938623,2.045869954739832,0.38118517751169534,1.5882374541777367,4.789187908172607,0.0
705,2,205,1,-1,-2.3219617176373055,-0.36460525235938623,2.045869954739832,0.38060988333770085,1.5882374541777367,5.203157901763916,0.0
706,2,206,-1,1,1.9570919577681973,0.6303965106222843,2.045869954739832,0.4999230979210685,1.5882374541777367,2.492229461669922,1.0
707,2,207,-1,-1,1.0812892012971198,0.6303965106222843,2.045869954739832,0.3817574065842254,1.5882374541777367,2.258232355117798,0.0
708,2,208,1,-1,-2.249610661925134,-0.36460525235938623,2.045869954739832,0.3806342789877184,1.5882374541777367,12.129867553710938,0.0
709,2,209,1,1,0.47425435342792155,-0.36460525235938623,2.045869954739832,0.4994231081576531,1.5882374541777367,3.5132713317871094,0.0
710,2,210,1,-1,-0.17095289124673785,-0.36460525235938623,2.045869954739832,0.38133517003872835,1.5882374541777367,2.212233066558838,0.0
711,2,211,1,-1,-1.514522011657216,-0.36460525235938623,2.045869954739832,0.38088213944071814,1.5882374541777367,4.13023567199707,1.0
712,2,212,-1,-1,-1.0869460627217737,0.6303965106222843,2.045869954739832,0.3810263113965173,1.5882374541777367,4.3602190017700195,1.0
713,2,213,1,1,0.6475773917341711,-0.36460525235938623,2.045869954739832,0.49948154998881755,1.5882374541777367,2.3272314071655273,1.0
714,2,214,1,1,1.3088592024413757,-0.36460525235938623,2.045869954739832,0.4997045239241417,1.5882374541777367,3.356264114379883,0.0
715,2,215,-1,1,0.44225368845682267,0.6303965106222843,2.045869954739832,0.49941231803143754,1.5882374541777367,2.7252345085144043,1.0
716,2,216,-1,-1,-0.5333270307461027,0.6303965106222843,2.045869954739832,0.38121298311836305,1.5882374541777367,4.8301849365234375,1.0
717,2,217,1,-1,-2.1635555874358428,-0.36460525235938623,2.045869954739832,0.38066329541959787,1.5882374541777367,3.44726824760437,0.0
718,2,218,1,-1,-0.30858925048620867,-0.36460525235938623,2.045869954739832,0.38128876120036864,1.5882374541777367,4.5732035636901855,0.0
719,2,219,1,1,0.014273651375177998,-0.36460525235938623,2.045869954739832,0.4992680098234041,1.5882374541777367,5.079166889190674,0.0
720,2,220,-1,1,2.575928824502554,0.6303965106222843,2.045869954739832,0.5001317600818376,1.5882374541777367,2.437230110168457,1.0
721,2,221,1,1,1.5928610487450885,-0.36460525235938623,2.045869954739832,0.4998002849269159,1.5882374541777367,2.863240957260132,1.0
722,2,222,-1,-1,0.011170007301820606,0.6303965106222843,2.045869954739832,0.38139657904581803,1.5882374541777367,3.415266752243042,1.0
723,2,223,1,-1,0.5113999490706598,-0.36460525235938623,2.045869954739832,0.3815652487973176,1.5882374541777367,3.393265724182129,0.0
724,2,224,-1,1,1.7754610493046785,0.6303965106222843,2.045869954739832,0.4998618548053788,1.5882374541777367,4.502208709716797,1.0
725,2,225,1,1,0.019057357790039586,-0.36460525235938623,2.045869954739832,0.4992696228147604,1.5882374541777367,3.772261619567871,1.0
726,2,226,-1,1,1.303463594284626,0.6303965106222843,2.045869954739832,0.4997027046090408,1.5882374541777367,3.0062475204467773,1.0
727,2,227,1,-1,-1.414846493971899,-0.36460525235938623,2.045869954739832,0.3809157484740741,1.5882374541777367,2.3262314796447754,0.0
728,2,228,-1,-1,-0.11643032865742786,0.6303965106222843,2.045869954739832,0.3813535541983221,1.5882374541777367,6.604056358337402,1.0
729,2,229,-1,1,0.32159508325082575,0.6303965106222843,2.045869954739832,0.49937163382752037,1.5882374541777367,6.230083465576172,1.0
730,2,230,1,-1,-2.9657618047515077,-0.36460525235938623,2.045869954739832,0.38039280396751163,1.5882374541777367,8.156944274902344,0.0
731,2,231,-1,-1,-2.009733937176976,0.6303965106222843,2.045869954739832,0.3807151616862045,1.5882374541777367,3.179255723953247,1.0
732,2,232,-1,1,1.5668173907903054,0.6303965106222843,2.045869954739832,0.4997915034107599,1.5882374541777367,8.28193473815918,1.0
733,2,233,1,-1,-3.5018939005349585,-0.36460525235938623,2.045869954739832,0.38021202856840824,1.5882374541777367,3.5682740211486816,0.0
734,2,234,1,1,1.4288031679612114,-0.36460525235938623,2.045869954739832,0.4997449671626783,1.5882374541777367,6.604056358337402,0.0
735,2,235,1,1,0.2207050461868859,-0.36460525235938623,2.045869954739832,0.49933761527713094,1.5882374541777367,13.221308708190918,0.0
736,2,236,-1,1,1.590686488744526,0.6303965106222843,2.045869954739832,0.4997995516991255,1.5882374541777367,2.630229949951172,1.0
737,2,237,1,1,0.42608384816282574,-0.36460525235938623,2.045869954739832,0.4994068658129347,1.5882374541777367,10.92538070678711,1.0
738,2,238,1,-1,-2.8262983330629456,-0.36460525235938623,2.045869954739832,0.3804398288797546,1.5882374541777367,2.4052305221557617,0.0
739,2,239,-1,-1,0.4519103725637672,0.6303965106222843,2.045869954739832,0.38154518983793034,1.5882374541777367,5.062168121337891,1.0
740,2,240,-1,-1,0.011272312745581603,0.6303965106222843,2.045869954739832,0.3813966135416215,1.5882374541777367,6.007099628448486,1.0
741,2,241,1,-1,-0.09432658258477311,-0.36460525235938623,2.045869954739832,0.38136100723750666,1.5882374541777367,2.2722320556640625,0.0
742,2,242,-1,1,2.3730478558067,0.6303965106222843,2.045869954739832,0.5000633517765432,1.5882374541777367,5.686122894287109,1.0
743,2,243,-1,-1,-1.0460389830590748,0.6303965106222843,2.045869954739832,0.3810401046271602,1.5882374541777367,5.505136013031006,1.0
744,2,244,-1,1,1.5786467324169204,0.6303965106222843,2.045869954739832,0.49979549208066143,1.5882374541777367,2.5462286472320557,1.0
745,2,245,1,1,0.8878620407398591,-0.36460525235938623,2.045869954739832,0.4995625702330149,1.5882374541777367,2.5652284622192383,0.0
746,2,246,-1,1,1.6500828712421047,0.6303965106222843,2.045869954739832,0.49981957923494313,1.5882374541777367,2.7672364711761475,1.0
747,2,247,-1,-1,-2.7940078585870394,0.6303965106222843,2.045869954739832,0.380450716725225,1.5882374541777367,3.0782508850097656,0.0
748,2,248,-1,-1,-1.7007004544354902,0.6303965106222843,2.045869954739832,0.38081936296722885,1.5882374541777367,6.716048240661621,1.0
749,2,249,1,-1,-0.5636624747594858,-0.36460525235938623,2.045869954739832,0.3812027544787393,1.5882374541777367,8.834895133972168,0.0
750,2,250,1,1,1.8585793331230622,-0.36460525235938623,2.045869954739832,0.49988988099714804,1.5882374541777367,4.04324197769165,0.0
751,2,251,-1,-1,-0.8283604587206149,0.6303965106222843,2.045869954739832,0.38111350243792924,1.5882374541777367,4.618200302124023,1.0
752,2,252,1,1,-0.8842980236391131,-0.36460525235938623,2.045869954739832,0.4989650254386763,1.5882374541777367,4.08923864364624,0.0
