,subj_idx,trial_idx,S,X,M,v,a,z,t,rt,response
0,1,0,-1,-1,-0.7507195390597989,-0.28649486706058613,1,0.4309419264728351,0.001,0.47199746966362,1.0
1,1,1,1,1,0.9255590211222664,-1.0783236291057814,1,0.4309419264728351,0.001,0.3529990017414093,0.0
2,1,2,-1,1,0.584534704786593,-0.28649486706058613,1,0.4309419264728351,0.001,0.9639911651611328,1.0
3,1,3,1,1,-0.23024686606651446,-1.0783236291057814,1,0.4309419264728351,0.001,0.2590002119541168,0.0
4,1,4,1,1,0.35778683567785646,-1.0783236291057814,1,0.4309419264728351,0.001,0.15600013732910156,0.0
5,1,5,-1,-1,-1.4020932403517135,-0.28649486706058613,1,0.4309419264728351,0.001,0.2340002954006195,1.0
6,1,6,-1,-1,-1.7556792589115362,-0.28649486706058613,1,0.4309419264728351,0.001,0.9749910235404968,0.0
7,1,7,-1,1,1.7052820236715869,-0.28649486706058613,1,0.4309419264728351,0.001,0.38899853825569153,0.0
8,1,8,1,-1,-0.8092241113558843,-1.0783236291057814,1,0.4309419264728351,0.001,0.6709949374198914,0.0
9,1,9,1,1,1.245017959074534,-1.0783236291057814,1,0.4309419264728351,0.001,0.2969997227191925,0.0
10,1,10,-1,-1,1.662519767910056,-0.28649486706058613,1,0.4309419264728351,0.001,0.3169994652271271,0.0
11,1,11,-1,1,1.27043341604793,-0.28649486706058613,1,0.4309419264728351,0.001,1.903032898902893,0.0
12,1,12,-1,1,0.12645081172170625,-0.28649486706058613,1,0.4309419264728351,0.001,0.38899853825569153,0.0
13,1,13,-1,-1,-1.8374832275285646,-0.28649486706058613,1,0.4309419264728351,0.001,0.11200004816055298,0.0
14,1,14,-1,-1,-0.1928988455466038,-0.28649486706058613,1,0.4309419264728351,0.001,1.0299921035766602,0.0
15,1,15,1,-1,-0.08855510095381991,-1.0783236291057814,1,0.4309419264728351,0.001,0.9069918990135193,0.0
16,1,16,1,1,1.0450408308323607,-1.0783236291057814,1,0.4309419264728351,0.001,0.202000230550766,0.0
17,1,17,1,-1,0.8417534210428455,-1.0783236291057814,1,0.4309419264728351,0.001,0.7669937014579773,0.0
18,1,18,1,1,0.6475039795201909,-1.0783236291057814,1,0.4309419264728351,0.001,0.27699998021125793,1.0
19,1,19,-1,1,1.285926619404309,-0.28649486706058613,1,0.4309419264728351,0.001,0.251000314950943,0.0
20,1,20,1,-1,0.028572789199081017,-1.0783236291057814,1,0.4309419264728351,0.001,0.6619950532913208,1.0
21,1,21,-1,1,0.6985591177165807,-0.28649486706058613,1,0.4309419264728351,0.001,0.38199862837791443,0.0
22,1,22,1,1,0.1414859136571493,-1.0783236291057814,1,0.4309419264728351,0.001,0.3389991819858551,0.0
23,1,23,-1,-1,-0.2961409813220246,-0.28649486706058613,1,0.4309419264728351,0.001,0.572996199131012,0.0
24,1,24,1,1,0.4947819304278379,-1.0783236291057814,1,0.4309419264728351,0.001,0.2759999930858612,0.0
25,1,25,-1,-1,-1.195899331071009,-0.28649486706058613,1,0.4309419264728351,0.001,0.5299967527389526,0.0
26,1,26,-1,-1,1.2354834011131846,-0.28649486706058613,1,0.4309419264728351,0.001,0.3039996325969696,0.0
27,1,27,1,-1,-0.33140256588387684,-1.0783236291057814,1,0.4309419264728351,0.001,0.2929997742176056,0.0
28,1,28,1,1,-0.350804985743184,-1.0783236291057814,1,0.4309419264728351,0.001,0.8739923238754272,0.0
29,1,29,-1,1,-0.5909841855915814,-0.28649486706058613,1,0.4309419264728351,0.001,0.6939946413040161,0.0
30,1,30,1,1,0.7170682871778438,-1.0783236291057814,1,0.4309419264728351,0.001,0.14100010693073273,0.0
31,1,31,1,-1,-0.8458713330245196,-1.0783236291057814,1,0.4309419264728351,0.001,0.4659975469112396,0.0
32,1,32,1,-1,0.7025823995742551,-1.0783236291057814,1,0.4309419264728351,0.001,1.3170055150985718,0.0
33,1,33,1,-1,0.2291482524295092,-1.0783236291057814,1,0.4309419264728351,0.001,0.4439978301525116,1.0
34,1,34,-1,-1,-1.8380860728147237,-0.28649486706058613,1,0.4309419264728351,0.001,0.9019919633865356,0.0
35,1,35,-1,1,1.2700009837392658,-0.28649486706058613,1,0.4309419264728351,0.001,2.0150363445281982,0.0
36,1,36,-1,-1,0.4629249222049465,-0.28649486706058613,1,0.4309419264728351,0.001,0.3979984223842621,0.0
37,1,37,1,-1,0.42648617143640566,-1.0783236291057814,1,0.4309419264728351,0.001,1.5640170574188232,0.0
38,1,38,-1,-1,0.13285709649819322,-0.28649486706058613,1,0.4309419264728351,0.001,2.509000539779663,0.0
39,1,39,1,-1,-1.559664242351596,-1.0783236291057814,1,0.4309419264728351,0.001,0.6889947056770325,1.0
40,1,40,1,1,0.58450427868437,-1.0783236291057814,1,0.4309419264728351,0.001,0.18200019001960754,0.0
41,1,41,-1,1,0.24398981073129145,-0.28649486706058613,1,0.4309419264728351,0.001,0.21200025081634521,0.0
42,1,42,-1,1,0.0698954189030101,-0.28649486706058613,1,0.4309419264728351,0.001,0.20900024473667145,0.0
43,1,43,1,-1,-0.016288538525007223,-1.0783236291057814,1,0.4309419264728351,0.001,0.37999865412712097,0.0
44,1,44,1,1,0.8657525930148866,-1.0783236291057814,1,0.4309419264728351,0.001,0.3449991047382355,0.0
45,1,45,-1,-1,0.08914388341097279,-0.28649486706058613,1,0.4309419264728351,0.001,0.30199965834617615,0.0
46,1,46,1,1,1.8705480064577709,-1.0783236291057814,1,0.4309419264728351,0.001,0.46299758553504944,0.0
47,1,47,1,-1,-0.5715137415847737,-1.0783236291057814,1,0.4309419264728351,0.001,0.27100005745887756,0.0
48,1,48,-1,1,1.6872738441729602,-0.28649486706058613,1,0.4309419264728351,0.001,0.5809960961341858,1.0
49,1,49,-1,-1,-1.4523141540839384,-0.28649486706058613,1,0.4309419264728351,0.001,1.1689985990524292,0.0
50,1,50,-1,-1,-1.4313145822840274,-0.28649486706058613,1,0.4309419264728351,0.001,0.493997186422348,1.0
51,1,51,1,1,1.161150311137715,-1.0783236291057814,1,0.4309419264728351,0.001,0.3779986798763275,0.0
52,1,52,1,1,-0.09897024439912627,-1.0783236291057814,1,0.4309419264728351,0.001,1.6870228052139282,0.0
53,1,53,-1,-1,-1.1727979364716252,-0.28649486706058613,1,0.4309419264728351,0.001,0.3359992206096649,0.0
54,1,54,-1,-1,0.2728946616717074,-0.28649486706058613,1,0.4309419264728351,0.001,0.7309941649436951,0.0
55,1,55,1,1,0.5103093173245435,-1.0783236291057814,1,0.4309419264728351,0.001,0.5569964051246643,0.0
56,1,56,-1,-1,-0.6870791234669114,-0.28649486706058613,1,0.4309419264728351,0.001,0.1660001575946808,0.0
57,1,57,-1,-1,-1.465241499803506,-0.28649486706058613,1,0.4309419264728351,0.001,0.21200025081634521,0.0
58,1,58,-1,1,1.3020569884008806,-0.28649486706058613,1,0.4309419264728351,0.001,0.41099825501441956,1.0
59,1,59,-1,1,1.172338253369066,-0.28649486706058613,1,0.4309419264728351,0.001,0.43899789452552795,0.0
60,1,60,1,-1,-0.38633313452374457,-1.0783236291057814,1,0.4309419264728351,0.001,0.47699740529060364,0.0
61,1,61,-1,-1,-2.1962090345906264,-0.28649486706058613,1,0.4309419264728351,0.001,0.6849947571754456,1.0
62,1,62,-1,-1,-2.1947997250339304,-0.28649486706058613,1,0.4309419264728351,0.001,0.2340002954006195,1.0
63,1,63,1,1,3.254176875283599,-1.0783236291057814,1,0.4309419264728351,0.001,0.2110002487897873,0.0
64,1,64,1,-1,-0.290313548792347,-1.0783236291057814,1,0.4309419264728351,0.001,0.9369915127754211,1.0
65,1,65,1,-1,-0.5056626084952964,-1.0783236291057814,1,0.4309419264728351,0.001,0.5699962377548218,0.0
66,1,66,1,-1,0.02624441994991733,-1.0783236291057814,1,0.4309419264728351,0.001,1.512014627456665,0.0
67,1,67,1,-1,-1.1638781740122308,-1.0783236291057814,1,0.4309419264728351,0.001,0.5559964179992676,0.0
68,1,68,1,1,-1.3682955564781905,-1.0783236291057814,1,0.4309419264728351,0.001,0.16900016367435455,0.0
69,1,69,-1,1,0.8274087667622918,-0.28649486706058613,1,0.4309419264728351,0.001,2.6009938716888428,0.0
70,1,70,1,1,1.4311664072050034,-1.0783236291057814,1,0.4309419264728351,0.001,0.23200029134750366,0.0
71,1,71,1,-1,0.011124831081031572,-1.0783236291057814,1,0.4309419264728351,0.001,0.1660001575946808,0.0
72,1,72,-1,1,0.36523071136609325,-0.28649486706058613,1,0.4309419264728351,0.001,0.6859947443008423,0.0
73,1,73,-1,1,-0.20688964465580484,-0.28649486706058613,1,0.4309419264728351,0.001,2.6649892330169678,1.0
74,1,74,1,1,-1.4118910043908812,-1.0783236291057814,1,0.4309419264728351,0.001,0.2680000960826874,0.0
75,1,75,1,-1,-0.9994323478726932,-1.0783236291057814,1,0.4309419264728351,0.001,1.8070284128189087,0.0
76,1,76,1,1,0.9829037928505671,-1.0783236291057814,1,0.4309419264728351,0.001,0.6109957098960876,0.0
77,1,77,1,1,1.361830957228592,-1.0783236291057814,1,0.4309419264728351,0.001,0.4159981906414032,0.0
78,1,78,1,1,2.2590263815074505,-1.0783236291057814,1,0.4309419264728351,0.001,0.27100005745887756,0.0
79,1,79,1,-1,-0.9644151377948949,-1.0783236291057814,1,0.4309419264728351,0.001,0.20100022852420807,0.0
80,1,80,-1,-1,-0.5104861172487537,-0.28649486706058613,1,0.4309419264728351,0.001,0.6339954137802124,0.0
81,1,81,-1,-1,0.3296701642539783,-0.28649486706058613,1,0.4309419264728351,0.001,0.8629924654960632,1.0
82,1,82,-1,1,2.2045328732091845,-0.28649486706058613,1,0.4309419264728351,0.001,0.28799983859062195,1.0
83,1,83,-1,-1,-2.6083827701779594,-0.28649486706058613,1,0.4309419264728351,0.001,0.9509913325309753,0.0
84,1,84,1,1,2.142382642562078,-1.0783236291057814,1,0.4309419264728351,0.001,0.27100005745887756,0.0
85,1,85,-1,-1,-0.12958218179576197,-0.28649486706058613,1,0.4309419264728351,0.001,2.302015542984009,0.0
86,1,86,-1,1,1.7323880909342764,-0.28649486706058613,1,0.4309419264728351,0.001,0.6609950661659241,0.0
87,1,87,1,1,2.379501836473924,-1.0783236291057814,1,0.4309419264728351,0.001,0.5899959802627563,1.0
88,1,88,1,-1,-0.9762848315496493,-1.0783236291057814,1,0.4309419264728351,0.001,0.273000031709671,0.0
89,1,89,-1,-1,-1.6171042676176532,-0.28649486706058613,1,0.4309419264728351,0.001,0.3979984223842621,0.0
90,1,90,1,1,0.6193867420763925,-1.0783236291057814,1,0.4309419264728351,0.001,0.5589963793754578,0.0
91,1,91,-1,-1,-1.93629286724335,-0.28649486706058613,1,0.4309419264728351,0.001,1.14299738407135,1.0
92,1,92,-1,-1,1.3633101354402828,-0.28649486706058613,1,0.4309419264728351,0.001,0.15500013530254364,0.0
93,1,93,1,1,0.7199942634269574,-1.0783236291057814,1,0.4309419264728351,0.001,0.6349954009056091,0.0
94,1,94,1,-1,0.30116062306147307,-1.0783236291057814,1,0.4309419264728351,0.001,0.14600011706352234,0.0
95,1,95,-1,-1,-0.8655808128214276,-0.28649486706058613,1,0.4309419264728351,0.001,1.007991075515747,0.0
96,1,96,-1,1,0.3901669365845573,-0.28649486706058613,1,0.4309419264728351,0.001,1.4020094871520996,0.0
97,1,97,1,1,-0.08562095059165864,-1.0783236291057814,1,0.4309419264728351,0.001,0.15700013935565948,0.0
98,1,98,-1,-1,-2.041471564034545,-0.28649486706058613,1,0.4309419264728351,0.001,0.6589950919151306,1.0
99,1,99,1,1,-0.37312037562518574,-1.0783236291057814,1,0.4309419264728351,0.001,0.12400007247924805,1.0
100,1,100,1,1,-0.6994088073396789,-1.0783236291057814,1,0.4309419264728351,0.001,0.4749974310398102,0.0
101,1,101,1,1,1.422660252047283,-1.0783236291057814,1,0.4309419264728351,0.001,0.18200019001960754,0.0
102,1,102,-1,1,0.19440354706334545,-0.28649486706058613,1,0.4309419264728351,0.001,0.2610001862049103,0.0
103,1,103,-1,-1,-0.06625586500415426,-0.28649486706058613,1,0.4309419264728351,0.001,0.9979907274246216,1.0
104,1,104,-1,-1,0.7739102420862964,-0.28649486706058613,1,0.4309419264728351,0.001,0.39599844813346863,1.0
105,1,105,1,-1,-1.9004725088862722,-1.0783236291057814,1,0.4309419264728351,0.001,0.6889947056770325,1.0
106,1,106,-1,1,0.45379612531814273,-0.28649486706058613,1,0.4309419264728351,0.001,0.6729949116706848,1.0
107,1,107,-1,-1,-0.8641529003184117,-0.28649486706058613,1,0.4309419264728351,0.001,1.3640077114105225,0.0
108,1,108,-1,-1,-1.7345119461642395,-0.28649486706058613,1,0.4309419264728351,0.001,1.3280060291290283,0.0
109,1,109,1,1,-0.5876270150791623,-1.0783236291057814,1,0.4309419264728351,0.001,2.9309699535369873,0.0
110,1,110,1,-1,-0.5220112933770784,-1.0783236291057814,1,0.4309419264728351,0.001,2.3520119190216064,0.0
111,1,111,1,-1,-1.0284270410028684,-1.0783236291057814,1,0.4309419264728351,0.001,0.3809986412525177,0.0
112,1,112,1,1,0.4152953440201226,-1.0783236291057814,1,0.4309419264728351,0.001,0.6189956068992615,0.0
113,1,113,1,-1,-0.006936639606144213,-1.0783236291057814,1,0.4309419264728351,0.001,1.379008412361145,0.0
114,1,114,1,-1,-1.6771660939478414,-1.0783236291057814,1,0.4309419264728351,0.001,0.17900018393993378,0.0
115,1,115,-1,-1,-0.9706377175258727,-0.28649486706058613,1,0.4309419264728351,0.001,1.7490257024765015,1.0
116,1,116,1,-1,-0.6333499869500556,-1.0783236291057814,1,0.4309419264728351,0.001,2.2190215587615967,0.0
117,1,117,1,-1,0.6118594297036508,-1.0783236291057814,1,0.4309419264728351,0.001,0.18800020217895508,0.0
118,1,118,1,-1,-1.1765408196263065,-1.0783236291057814,1,0.4309419264728351,0.001,0.9469913840293884,0.0
119,1,119,1,1,0.7656152671260789,-1.0783236291057814,1,0.4309419264728351,0.001,0.6739948987960815,0.0
120,1,120,1,-1,-0.045036527538803606,-1.0783236291057814,1,0.4309419264728351,0.001,1.5660171508789062,0.0
121,1,121,1,-1,-0.7406393192426863,-1.0783236291057814,1,0.4309419264728351,0.001,1.2120006084442139,0.0
122,1,122,1,-1,0.6572901167782714,-1.0783236291057814,1,0.4309419264728351,0.001,2.684987783432007,0.0
123,1,123,-1,-1,-1.5286531130122585,-0.28649486706058613,1,0.4309419264728351,0.001,0.27400001883506775,0.0
124,1,124,1,1,0.5936804451748338,-1.0783236291057814,1,0.4309419264728351,0.001,0.19500021636486053,0.0
125,1,125,1,1,0.7277645110102476,-1.0783236291057814,1,0.4309419264728351,0.001,1.1549979448318481,0.0
126,1,126,-1,1,1.3549300895811647,-0.28649486706058613,1,0.4309419264728351,0.001,0.18700020015239716,1.0
127,1,127,-1,-1,-2.676051693856092,-0.28649486706058613,1,0.4309419264728351,0.001,0.4379979074001312,0.0
128,1,128,-1,-1,1.43778343600667,-0.28649486706058613,1,0.4309419264728351,0.001,0.24200031161308289,0.0
129,1,129,-1,1,0.10644469804842027,-0.28649486706058613,1,0.4309419264728351,0.001,0.33699920773506165,0.0
130,1,130,1,1,-1.0118408391617049,-1.0783236291057814,1,0.4309419264728351,0.001,0.9259916543960571,0.0
131,1,131,1,-1,-0.8065315796871839,-1.0783236291057814,1,0.4309419264728351,0.001,0.6879947185516357,0.0
132,1,132,-1,-1,-0.5521250675407287,-0.28649486706058613,1,0.4309419264728351,0.001,2.2650182247161865,1.0
133,1,133,-1,-1,-0.16259305579304079,-0.28649486706058613,1,0.4309419264728351,0.001,0.686994731426239,0.0
134,1,134,1,1,2.336616699404822,-1.0783236291057814,1,0.4309419264728351,0.001,0.16800016164779663,0.0
135,1,135,1,1,0.5325737689060397,-1.0783236291057814,1,0.4309419264728351,0.001,0.29499974846839905,0.0
136,1,136,-1,1,0.6036157593350295,-0.28649486706058613,1,0.4309419264728351,0.001,1.488013505935669,1.0
137,1,137,1,1,1.4294882653375498,-1.0783236291057814,1,0.4309419264728351,0.001,0.47799739241600037,0.0
138,1,138,-1,-1,-0.7197691196946754,-0.28649486706058613,1,0.4309419264728351,0.001,0.2540002763271332,0.0
139,1,139,-1,-1,0.25887193065156056,-0.28649486706058613,1,0.4309419264728351,0.001,0.3839986026287079,0.0
140,1,140,-1,-1,-2.2514054304710065,-0.28649486706058613,1,0.4309419264728351,0.001,0.49199721217155457,0.0
141,1,141,-1,-1,-1.9183128714137596,-0.28649486706058613,1,0.4309419264728351,0.001,0.1440001130104065,0.0
142,1,142,1,-1,-0.988227597041802,-1.0783236291057814,1,0.4309419264728351,0.001,1.8700313568115234,0.0
143,1,143,-1,-1,-0.6990610476436,-0.28649486706058613,1,0.4309419264728351,0.001,1.0169914960861206,0.0
144,1,144,-1,1,-0.9991051294519064,-0.28649486706058613,1,0.4309419264728351,0.001,0.8799922466278076,0.0
145,1,145,1,-1,0.1235096302049058,-1.0783236291057814,1,0.4309419264728351,0.001,0.2340002954006195,0.0
146,1,146,1,-1,-0.9860243990946254,-1.0783236291057814,1,0.4309419264728351,0.001,0.30499961972236633,0.0
147,1,147,1,-1,-0.4207926499882617,-1.0783236291057814,1,0.4309419264728351,0.001,0.38199862837791443,0.0
148,1,148,1,1,1.344053422096893,-1.0783236291057814,1,0.4309419264728351,0.001,0.46999749541282654,0.0
149,1,149,1,1,2.799461179398797,-1.0783236291057814,1,0.4309419264728351,0.001,0.17900018393993378,0.0
150,1,150,-1,-1,0.28727825451743716,-0.28649486706058613,1,0.4309419264728351,0.001,1.2840039730072021,1.0
151,1,151,1,-1,-0.1667749790007001,-1.0783236291057814,1,0.4309419264728351,0.001,0.5159969329833984,0.0
152,1,152,1,1,-0.42954978343403183,-1.0783236291057814,1,0.4309419264728351,0.001,0.9289916157722473,0.0
153,1,153,1,1,2.203350590311001,-1.0783236291057814,1,0.4309419264728351,0.001,0.24100030958652496,0.0
154,1,154,-1,-1,-0.31941958450485014,-0.28649486706058613,1,0.4309419264728351,0.001,0.273000031709671,1.0
155,1,155,-1,1,1.4107758932933496,-0.28649486706058613,1,0.4309419264728351,0.001,1.4480116367340088,1.0
156,1,156,-1,1,0.8630314957780986,-0.28649486706058613,1,0.4309419264728351,0.001,0.5399966239929199,0.0
157,1,157,1,1,1.2716468956511424,-1.0783236291057814,1,0.4309419264728351,0.001,0.3379991948604584,0.0
158,1,158,-1,-1,-3.5375535964655835,-0.28649486706058613,1,0.4309419264728351,0.001,0.7959933280944824,0.0
159,1,159,-1,1,1.3886825103003724,-0.28649486706058613,1,0.4309419264728351,0.001,0.7999932765960693,0.0
160,1,160,1,-1,-0.21411864430262345,-1.0783236291057814,1,0.4309419264728351,0.001,0.48399731516838074,0.0
161,1,161,1,1,1.8429701939354028,-1.0783236291057814,1,0.4309419264728351,0.001,0.6629950404167175,0.0
162,1,162,1,1,-2.4061418172466227,-1.0783236291057814,1,0.4309419264728351,0.001,0.24900032579898834,0.0
163,1,163,-1,1,0.6387654800290455,-0.28649486706058613,1,0.4309419264728351,0.001,0.6549951434135437,0.0
164,1,164,-1,-1,-1.076290616285074,-0.28649486706058613,1,0.4309419264728351,0.001,0.13900010287761688,0.0
165,1,165,1,-1,0.07720949911792074,-1.0783236291057814,1,0.4309419264728351,0.001,0.49499717354774475,0.0
166,1,166,1,1,-0.15598771900908748,-1.0783236291057814,1,0.4309419264728351,0.001,1.5600168704986572,0.0
167,1,167,1,1,1.5382641924195064,-1.0783236291057814,1,0.4309419264728351,0.001,0.5339967012405396,0.0
168,1,168,-1,1,-2.1733014273218543,-0.28649486706058613,1,0.4309419264728351,0.001,0.32599934935569763,0.0
169,1,169,1,-1,-0.2893653271552472,-1.0783236291057814,1,0.4309419264728351,0.001,0.8589925169944763,0.0
170,1,170,1,1,-0.5783145088231743,-1.0783236291057814,1,0.4309419264728351,0.001,0.5059970617294312,0.0
171,1,171,-1,1,0.030982493328179594,-0.28649486706058613,1,0.4309419264728351,0.001,4.534853935241699,0.0
172,1,172,-1,1,1.674730584604706,-0.28649486706058613,1,0.4309419264728351,0.001,1.7550259828567505,0.0
173,1,173,1,-1,-1.0331413032274677,-1.0783236291057814,1,0.4309419264728351,0.001,0.401998370885849,0.0
174,1,174,1,-1,-2.85767449225592,-1.0783236291057814,1,0.4309419264728351,0.001,0.6479952335357666,0.0
175,1,175,-1,1,0.47567961091922506,-0.28649486706058613,1,0.4309419264728351,0.001,0.34799906611442566,0.0
176,1,176,1,-1,1.4911687869970702,-1.0783236291057814,1,0.4309419264728351,0.001,0.4259980618953705,0.0
177,1,177,-1,1,-0.09761632366685635,-0.28649486706058613,1,0.4309419264728351,0.001,0.5129969716072083,0.0
178,1,178,-1,1,2.2218730516220004,-0.28649486706058613,1,0.4309419264728351,0.001,0.5529964566230774,0.0
179,1,179,1,1,-0.24424503367192973,-1.0783236291057814,1,0.4309419264728351,0.001,0.43899789452552795,0.0
180,1,180,-1,-1,-1.059389328399112,-0.28649486706058613,1,0.4309419264728351,0.001,0.9689911007881165,0.0
181,1,181,-1,-1,0.9768203941389628,-0.28649486706058613,1,0.4309419264728351,0.001,2.0340349674224854,0.0
182,1,182,1,-1,-1.576876781246502,-1.0783236291057814,1,0.4309419264728351,0.001,1.7170242071151733,0.0
183,1,183,1,1,1.3189065249734189,-1.0783236291057814,1,0.4309419264728351,0.001,1.63502037525177,1.0
184,1,184,-1,-1,-1.1853574029434255,-0.28649486706058613,1,0.4309419264728351,0.001,2.085031270980835,0.0
185,1,185,1,-1,-1.0651217469427259,-1.0783236291057814,1,0.4309419264728351,0.001,0.642995297908783,0.0
186,1,186,1,-1,0.44215136270610067,-1.0783236291057814,1,0.4309419264728351,0.001,0.47799739241600037,0.0
187,1,187,1,1,1.1687495076314482,-1.0783236291057814,1,0.4309419264728351,0.001,0.24900032579898834,0.0
188,1,188,1,-1,-0.8282067294142031,-1.0783236291057814,1,0.4309419264728351,0.001,0.8709923624992371,0.0
189,1,189,1,-1,-0.7027997450320767,-1.0783236291057814,1,0.4309419264728351,0.001,0.2030002325773239,0.0
190,1,190,1,-1,-1.583837926617646,-1.0783236291057814,1,0.4309419264728351,0.001,0.18700020015239716,0.0
191,1,191,1,-1,-1.3547794220601168,-1.0783236291057814,1,0.4309419264728351,0.001,1.395009160041809,0.0
192,1,192,1,-1,-0.5072248749112783,-1.0783236291057814,1,0.4309419264728351,0.001,0.25300028920173645,0.0
193,1,193,-1,-1,-1.4964911173376554,-0.28649486706058613,1,0.4309419264728351,0.001,0.6489952206611633,0.0
194,1,194,-1,-1,-0.5414428087459247,-0.28649486706058613,1,0.4309419264728351,0.001,2.99896502494812,0.0
195,1,195,1,-1,0.8179947793317492,-1.0783236291057814,1,0.4309419264728351,0.001,0.37899866700172424,0.0
196,1,196,-1,-1,0.15155926441792988,-0.28649486706058613,1,0.4309419264728351,0.001,0.47099748253822327,0.0
197,1,197,-1,-1,-1.1265324272393187,-0.28649486706058613,1,0.4309419264728351,0.001,0.2750000059604645,0.0
198,1,198,1,-1,-2.6651453906182896,-1.0783236291057814,1,0.4309419264728351,0.001,1.264003038406372,0.0
199,1,199,-1,1,0.3263547736789016,-0.28649486706058613,1,0.4309419264728351,0.001,0.7319941520690918,0.0
200,1,200,-1,1,-0.6132183788619265,-0.28649486706058613,1,0.4309419264728351,0.001,1.6540212631225586,1.0
201,1,201,1,-1,-2.3092443643958758,-1.0783236291057814,1,0.4309419264728351,0.001,0.5379966497421265,0.0
202,1,202,-1,-1,-0.9039071767080669,-0.28649486706058613,1,0.4309419264728351,0.001,1.9800364971160889,0.0
203,1,203,-1,-1,-1.223219487650049,-0.28649486706058613,1,0.4309419264728351,0.001,0.1660001575946808,0.0
204,1,204,-1,1,2.703356246686144,-0.28649486706058613,1,0.4309419264728351,0.001,0.17700017988681793,0.0
205,1,205,-1,-1,-1.442525194158499,-0.28649486706058613,1,0.4309419264728351,0.001,1.1779990196228027,0.0
206,1,206,-1,-1,-1.6030614094818039,-0.28649486706058613,1,0.4309419264728351,0.001,0.7809935212135315,1.0
207,1,207,-1,-1,0.12985399675006037,-0.28649486706058613,1,0.4309419264728351,0.001,0.30199965834617615,0.0
208,1,208,-1,1,1.120117054596348,-0.28649486706058613,1,0.4309419264728351,0.001,0.26700010895729065,0.0
209,1,209,-1,1,0.36297089587230486,-0.28649486706058613,1,0.4309419264728351,0.001,2.2670180797576904,0.0
210,1,210,1,1,1.3409646782634304,-1.0783236291057814,1,0.4309419264728351,0.001,0.5749961733818054,0.0
211,1,211,-1,1,1.67977616174612,-0.28649486706058613,1,0.4309419264728351,0.001,0.3309992849826813,0.0
212,1,212,-1,-1,-1.1553210054088319,-0.28649486706058613,1,0.4309419264728351,0.001,0.22700028121471405,0.0
213,1,213,-1,-1,-0.13427601163046432,-0.28649486706058613,1,0.4309419264728351,0.001,0.12800008058547974,0.0
214,1,214,1,1,-1.352468650989147,-1.0783236291057814,1,0.4309419264728351,0.001,1.0709940195083618,0.0
215,1,215,1,1,0.35557146381057864,-1.0783236291057814,1,0.4309419264728351,0.001,1.4580121040344238,1.0
216,1,216,1,1,1.751258530632657,-1.0783236291057814,1,0.4309419264728351,0.001,0.45699766278266907,0.0
217,1,217,-1,-1,-0.08427008719381579,-0.28649486706058613,1,0.4309419264728351,0.001,0.46999749541282654,0.0
218,1,218,-1,1,0.69640582861221,-0.28649486706058613,1,0.4309419264728351,0.001,0.18700020015239716,0.0
219,1,219,1,-1,-0.23738556447927778,-1.0783236291057814,1,0.4309419264728351,0.001,0.10500003397464752,0.0
220,1,220,1,1,-1.7176634473006707,-1.0783236291057814,1,0.4309419264728351,0.001,0.12700007855892181,0.0
221,1,221,-1,-1,0.09020574770046663,-0.28649486706058613,1,0.4309419264728351,0.001,1.2290014028549194,0.0
222,1,222,-1,-1,-0.037405348180816755,-0.28649486706058613,1,0.4309419264728351,0.001,0.1840001940727234,0.0
223,1,223,-1,-1,1.5176873278290532,-0.28649486706058613,1,0.4309419264728351,0.001,0.3669988214969635,0.0
224,1,224,1,1,0.2877605336097051,-1.0783236291057814,1,0.4309419264728351,0.001,0.31999942660331726,0.0
225,1,225,-1,1,2.746446118321174,-0.28649486706058613,1,0.4309419264728351,0.001,1.7930277585983276,0.0
226,1,226,1,-1,0.45016845467990363,-1.0783236291057814,1,0.4309419264728351,0.001,0.8499926328659058,0.0
227,1,227,1,-1,0.24924557588831664,-1.0783236291057814,1,0.4309419264728351,0.001,0.6749948859214783,0.0
228,1,228,1,-1,-2.2401856774698343,-1.0783236291057814,1,0.4309419264728351,0.001,0.3569989502429962,0.0
229,1,229,1,1,1.2415326836042015,-1.0783236291057814,1,0.4309419264728351,0.001,1.627020001411438,0.0
230,1,230,-1,1,0.18928097193496868,-0.28649486706058613,1,0.4309419264728351,0.001,0.19500021636486053,0.0
231,1,231,-1,1,0.32277537723908517,-0.28649486706058613,1,0.4309419264728351,0.001,0.3039996325969696,0.0
232,1,232,-1,1,-0.7738662243391303,-0.28649486706058613,1,0.4309419264728351,0.001,0.9009919762611389,0.0
233,1,233,-1,1,1.482066328071109,-0.28649486706058613,1,0.4309419264728351,0.001,1.6590214967727661,1.0
234,1,234,-1,-1,-0.6136236725159527,-0.28649486706058613,1,0.4309419264728351,0.001,1.0349923372268677,0.0
235,1,235,1,-1,-2.359401039383566,-1.0783236291057814,1,0.4309419264728351,0.001,1.1039955615997314,0.0
236,1,236,1,-1,-1.3653414914732234,-1.0783236291057814,1,0.4309419264728351,0.001,0.16800016164779663,0.0
237,1,237,1,-1,0.7383469505399289,-1.0783236291057814,1,0.4309419264728351,0.001,0.7049944996833801,0.0
238,1,238,1,-1,-1.0158092077435101,-1.0783236291057814,1,0.4309419264728351,0.001,0.9429914355278015,0.0
239,1,239,-1,-1,-0.7560352404815609,-0.28649486706058613,1,0.4309419264728351,0.001,0.8929920792579651,1.0
240,1,240,1,-1,-1.4641034479746127,-1.0783236291057814,1,0.4309419264728351,0.001,0.8059931993484497,0.0
241,1,241,-1,1,0.10538213126611362,-0.28649486706058613,1,0.4309419264728351,0.001,1.0789943933486938,1.0
242,1,242,-1,-1,-0.9961022953309765,-0.28649486706058613,1,0.4309419264728351,0.001,1.0509930849075317,0.0
243,1,243,1,-1,-1.1490834608494764,-1.0783236291057814,1,0.4309419264728351,0.001,1.4450114965438843,0.0
244,1,244,-1,-1,0.023033114793199028,-0.28649486706058613,1,0.4309419264728351,0.001,0.5049970746040344,0.0
245,1,245,1,-1,-1.966315757907237,-1.0783236291057814,1,0.4309419264728351,0.001,0.20100022852420807,0.0
246,1,246,-1,1,-1.5132427385279636,-0.28649486706058613,1,0.4309419264728351,0.001,0.41499820351600647,0.0
247,1,247,1,1,1.0593717988243745,-1.0783236291057814,1,0.4309419264728351,0.001,0.6199955940246582,0.0
248,1,248,-1,1,-0.8367732654020701,-0.28649486706058613,1,0.4309419264728351,0.001,0.9909908175468445,0.0
249,1,249,-1,-1,-0.9685092815753853,-0.28649486706058613,1,0.4309419264728351,0.001,0.2650001347064972,0.0
250,1,250,-1,-1,0.12829554001182797,-0.28649486706058613,1,0.4309419264728351,0.001,1.2840039730072021,0.0
251,1,251,1,-1,-0.3511525477969172,-1.0783236291057814,1,0.4309419264728351,0.001,0.10900004208087921,0.0
252,1,252,1,1,0.9936605986246381,-1.0783236291057814,1,0.4309419264728351,0.001,1.2980046272277832,0.0
253,1,253,1,1,-1.8688378552734854,-1.0783236291057814,1,0.4309419264728351,0.001,0.48099735379219055,0.0
254,1,254,-1,1,0.13643340918031133,-0.28649486706058613,1,0.4309419264728351,0.001,1.0439927577972412,0.0
255,1,255,-1,-1,-0.8848135385485051,-0.28649486706058613,1,0.4309419264728351,0.001,0.7159943580627441,1.0
256,1,256,-1,-1,-0.845476102166865,-0.28649486706058613,1,0.4309419264728351,0.001,1.0289920568466187,1.0
257,1,257,1,1,0.7422784777853682,-1.0783236291057814,1,0.4309419264728351,0.001,2.6899874210357666,0.0
258,1,258,-1,-1,-1.3477364913839431,-0.28649486706058613,1,0.4309419264728351,0.001,0.6599950790405273,0.0
259,1,259,1,1,-0.24241525811400966,-1.0783236291057814,1,0.4309419264728351,0.001,0.3489990532398224,0.0
260,1,260,-1,-1,1.4075839739412004,-0.28649486706058613,1,0.4309419264728351,0.001,1.0339922904968262,1.0
261,1,261,-1,-1,-0.9098035190328637,-0.28649486706058613,1,0.4309419264728351,0.001,1.1909996271133423,0.0
262,1,262,-1,1,1.052444472545349,-0.28649486706058613,1,0.4309419264728351,0.001,1.4620122909545898,1.0
263,1,263,1,-1,-0.30884025109572716,-1.0783236291057814,1,0.4309419264728351,0.001,1.885032057762146,0.0
264,1,264,1,1,2.8704170140541025,-1.0783236291057814,1,0.4309419264728351,0.001,0.2540002763271332,1.0
265,1,265,1,-1,-1.5456242556121018,-1.0783236291057814,1,0.4309419264728351,0.001,0.9369915127754211,0.0
266,1,266,-1,-1,-2.7683391419398897,-0.28649486706058613,1,0.4309419264728351,0.001,0.29899969696998596,0.0
267,1,267,1,-1,-1.332329325708327,-1.0783236291057814,1,0.4309419264728351,0.001,1.8150287866592407,0.0
268,1,268,-1,1,0.18914762664462914,-0.28649486706058613,1,0.4309419264728351,0.001,1.371008038520813,1.0
269,1,269,1,1,0.4079513446240714,-1.0783236291057814,1,0.4309419264728351,0.001,1.347006916999817,0.0
270,1,270,1,1,-0.3458389541952632,-1.0783236291057814,1,0.4309419264728351,0.001,0.39699843525886536,0.0
271,1,271,-1,1,2.418259095116297,-0.28649486706058613,1,0.4309419264728351,0.001,0.5069970488548279,0.0
272,1,272,-1,-1,-0.21653735284995362,-0.28649486706058613,1,0.4309419264728351,0.001,0.3149994909763336,1.0
273,1,273,1,1,-0.005990639303845469,-1.0783236291057814,1,0.4309419264728351,0.001,0.3879985511302948,0.0
274,1,274,-1,-1,0.4439054533331044,-0.28649486706058613,1,0.4309419264728351,0.001,0.7319941520690918,0.0
275,1,275,1,-1,-0.9174456375877305,-1.0783236291057814,1,0.4309419264728351,0.001,0.3849985897541046,0.0
276,1,276,-1,1,1.0040056635932442,-0.28649486706058613,1,0.4309419264728351,0.001,0.8519926071166992,1.0
277,1,277,1,-1,-1.5648712478031104,-1.0783236291057814,1,0.4309419264728351,0.001,0.19500021636486053,0.0
278,1,278,-1,1,0.6698125021941344,-0.28649486706058613,1,0.4309419264728351,0.001,0.15100012719631195,1.0
279,1,279,1,1,-0.05550127213640765,-1.0783236291057814,1,0.4309419264728351,0.001,0.5039970874786377,0.0
280,1,280,1,-1,-0.5252147600530617,-1.0783236291057814,1,0.4309419264728351,0.001,1.5620169639587402,0.0
281,1,281,-1,-1,-1.431554713830319,-0.28649486706058613,1,0.4309419264728351,0.001,2.1630256175994873,1.0
282,1,282,-1,1,0.6095221143334705,-0.28649486706058613,1,0.4309419264728351,0.001,0.6839947700500488,1.0
283,1,283,-1,1,-0.6967044257984443,-0.28649486706058613,1,0.4309419264728351,0.001,0.6309954524040222,0.0
284,1,284,-1,1,0.7686680834219395,-0.28649486706058613,1,0.4309419264728351,0.001,0.7409940361976624,0.0
285,1,285,-1,1,1.3174034569231132,-0.28649486706058613,1,0.4309419264728351,0.001,0.9709910750389099,0.0
286,1,286,-1,1,0.9427340314914902,-0.28649486706058613,1,0.4309419264728351,0.001,1.3680078983306885,1.0
287,1,287,1,1,-0.7233976723638733,-1.0783236291057814,1,0.4309419264728351,0.001,1.2070003747940063,0.0
288,1,288,1,1,1.0482497735664698,-1.0783236291057814,1,0.4309419264728351,0.001,0.1660001575946808,0.0
289,1,289,-1,1,2.1709886905735054,-0.28649486706058613,1,0.4309419264728351,0.001,0.31899943947792053,1.0
290,1,290,1,1,-0.6091178150913492,-1.0783236291057814,1,0.4309419264728351,0.001,0.4159981906414032,0.0
291,1,291,-1,-1,0.648617018849345,-0.28649486706058613,1,0.4309419264728351,0.001,0.8549925684928894,1.0
292,1,292,1,1,2.380901054670093,-1.0783236291057814,1,0.4309419264728351,0.001,0.5639963150024414,0.0
293,1,293,1,-1,0.627835840137237,-1.0783236291057814,1,0.4309419264728351,0.001,0.5629963278770447,0.0
294,1,294,-1,-1,0.3614827279990891,-0.28649486706058613,1,0.4309419264728351,0.001,0.10200002789497375,0.0
295,1,295,1,1,0.6500357663249638,-1.0783236291057814,1,0.4309419264728351,0.001,0.24500031769275665,0.0
296,1,296,-1,1,-0.1199197218262964,-0.28649486706058613,1,0.4309419264728351,0.001,3.132955312728882,0.0
297,1,297,1,-1,0.114727057032179,-1.0783236291057814,1,0.4309419264728351,0.001,0.4859972894191742,0.0
298,1,298,-1,1,0.22831286739362805,-0.28649486706058613,1,0.4309419264728351,0.001,1.2870041131973267,0.0
299,1,299,-1,1,-0.3387430446198899,-0.28649486706058613,1,0.4309419264728351,0.001,0.5889959931373596,1.0
300,1,300,1,1,-0.35969201451870203,-1.0783236291057814,1,0.4309419264728351,0.001,1.3460068702697754,0.0
301,1,301,-1,1,1.7237051290563694,-0.28649486706058613,1,0.4309419264728351,0.001,0.9769909977912903,0.0
302,1,302,-1,1,-0.15685611434561286,-0.28649486706058613,1,0.4309419264728351,0.001,0.4059983193874359,0.0
303,1,303,-1,-1,-0.7785087782751542,-0.28649486706058613,1,0.4309419264728351,0.001,0.59499591588974,0.0
304,1,304,1,-1,0.5436542174485577,-1.0783236291057814,1,0.4309419264728351,0.001,0.3919984996318817,0.0
305,1,305,-1,1,-0.9706638162840235,-0.28649486706058613,1,0.4309419264728351,0.001,2.1400272846221924,1.0
306,1,306,1,1,1.5316057106046397,-1.0783236291057814,1,0.4309419264728351,0.001,1.4850133657455444,0.0
307,1,307,1,1,-0.9779073690977487,-1.0783236291057814,1,0.4309419264728351,0.001,1.6940231323242188,1.0
308,1,308,-1,1,-0.30197373451545295,-0.28649486706058613,1,0.4309419264728351,0.001,0.22600027918815613,0.0
309,1,309,1,-1,0.35077399509664775,-1.0783236291057814,1,0.4309419264728351,0.001,1.1399972438812256,0.0
310,1,310,-1,1,0.16135940689207368,-0.28649486706058613,1,0.4309419264728351,0.001,0.25300028920173645,0.0
311,1,311,-1,1,1.257189098100203,-0.28649486706058613,1,0.4309419264728351,0.001,2.0690324306488037,0.0
312,1,312,-1,1,-1.7287578079911827,-0.28649486706058613,1,0.4309419264728351,0.001,0.7069944739341736,1.0
313,1,313,1,1,-1.334580031274752,-1.0783236291057814,1,0.4309419264728351,0.001,1.6420207023620605,0.0
314,1,314,-1,-1,-1.6558933324760532,-0.28649486706058613,1,0.4309419264728351,0.001,2.513000249862671,0.0
315,1,315,-1,1,0.4370418105805251,-0.28649486706058613,1,0.4309419264728351,0.001,5.398791313171387,0.0
316,1,316,-1,1,-0.28083704251271047,-0.28649486706058613,1,0.4309419264728351,0.001,1.4190102815628052,1.0
317,1,317,-1,1,0.5348526157895499,-0.28649486706058613,1,0.4309419264728351,0.001,1.4970139265060425,0.0
318,1,318,1,-1,0.06756941304750874,-1.0783236291057814,1,0.4309419264728351,0.001,0.29899969696998596,0.0
319,1,319,-1,1,-0.0092942307284265,-0.28649486706058613,1,0.4309419264728351,0.001,1.0429927110671997,0.0
320,1,320,-1,1,1.5485452014057124,-0.28649486706058613,1,0.4309419264728351,0.001,1.9710360765457153,0.0
321,1,321,1,1,0.6998690888314258,-1.0783236291057814,1,0.4309419264728351,0.001,1.8980326652526855,0.0
322,1,322,-1,1,0.9920825012610381,-0.28649486706058613,1,0.4309419264728351,0.001,3.041961908340454,0.0
323,1,323,1,1,0.04308191378408999,-1.0783236291057814,1,0.4309419264728351,0.001,1.8220291137695312,0.0
324,1,324,1,1,-0.4252632167833508,-1.0783236291057814,1,0.4309419264728351,0.001,1.007991075515747,0.0
325,1,325,1,-1,-0.0779391821751505,-1.0783236291057814,1,0.4309419264728351,0.001,0.16900016367435455,0.0
326,1,326,-1,1,-0.4884823070965161,-0.28649486706058613,1,0.4309419264728351,0.001,2.3490121364593506,0.0
327,1,327,-1,-1,-0.982006814081828,-0.28649486706058613,1,0.4309419264728351,0.001,0.5509964823722839,1.0
328,1,328,-1,1,-0.8990078164557969,-0.28649486706058613,1,0.4309419264728351,0.001,0.9789909720420837,1.0
329,1,329,-1,1,0.16113364897951366,-0.28649486706058613,1,0.4309419264728351,0.001,0.7469939589500427,0.0
330,1,330,-1,-1,-1.300102081334667,-0.28649486706058613,1,0.4309419264728351,0.001,0.6269955039024353,0.0
331,1,331,-1,-1,-0.9252293722452005,-0.28649486706058613,1,0.4309419264728351,0.001,0.34399911761283875,0.0
332,1,332,-1,-1,0.476152267801377,-0.28649486706058613,1,0.4309419264728351,0.001,1.4790130853652954,1.0
333,1,333,1,-1,-0.27896868643007616,-1.0783236291057814,1,0.4309419264728351,0.001,0.31199952960014343,0.0
334,1,334,1,1,0.9734600409326593,-1.0783236291057814,1,0.4309419264728351,0.001,2.5809953212738037,0.0
335,1,335,1,1,1.350553111718102,-1.0783236291057814,1,0.4309419264728351,0.001,0.4059983193874359,0.0
336,1,336,1,-1,-1.0069933224842444,-1.0783236291057814,1,0.4309419264728351,0.001,1.7470256090164185,0.0
337,1,337,-1,-1,-1.3992044626448403,-0.28649486706058613,1,0.4309419264728351,0.001,0.39999839663505554,0.0
338,1,338,-1,-1,0.609022713001601,-0.28649486706058613,1,0.4309419264728351,0.001,1.5450161695480347,0.0
339,1,339,1,1,1.937182210164693,-1.0783236291057814,1,0.4309419264728351,0.001,0.5379966497421265,0.0
340,1,340,-1,1,0.8529126574510479,-0.28649486706058613,1,0.4309419264728351,0.001,2.383009672164917,1.0
341,1,341,1,1,-0.47347441634317344,-1.0783236291057814,1,0.4309419264728351,0.001,0.4729974567890167,0.0
342,1,342,-1,1,0.6484140187578052,-0.28649486706058613,1,0.4309419264728351,0.001,0.561996340751648,1.0
343,1,343,-1,-1,-0.5615734205938625,-0.28649486706058613,1,0.4309419264728351,0.001,0.2799999415874481,0.0
344,1,344,1,1,1.472174571051612,-1.0783236291057814,1,0.4309419264728351,0.001,0.4969971477985382,0.0
345,1,345,-1,1,0.5559335532181329,-0.28649486706058613,1,0.4309419264728351,0.001,1.0579934120178223,0.0
346,1,346,-1,1,1.1399131987867712,-0.28649486706058613,1,0.4309419264728351,0.001,0.3289993107318878,0.0
347,1,347,-1,-1,-1.5127950055282882,-0.28649486706058613,1,0.4309419264728351,0.001,1.3540072441101074,1.0
348,1,348,1,1,1.1346054341084186,-1.0783236291057814,1,0.4309419264728351,0.001,0.35799893736839294,0.0
349,1,349,1,-1,0.168290511331724,-1.0783236291057814,1,0.4309419264728351,0.001,0.42099812626838684,0.0
350,1,350,1,-1,-0.2941276161802383,-1.0783236291057814,1,0.4309419264728351,0.001,0.46399757266044617,0.0
351,1,351,1,-1,-1.6409173056018544,-1.0783236291057814,1,0.4309419264728351,0.001,1.2030001878738403,0.0
352,1,352,-1,-1,-0.2794831356913838,-0.28649486706058613,1,0.4309419264728351,0.001,0.2750000059604645,0.0
353,1,353,1,1,1.517018265605096,-1.0783236291057814,1,0.4309419264728351,0.001,0.2520003020763397,0.0
354,1,354,-1,-1,-2.0690068857468384,-0.28649486706058613,1,0.4309419264728351,0.001,1.4640123844146729,0.0
355,1,355,1,1,0.2877110996180301,-1.0783236291057814,1,0.4309419264728351,0.001,0.40699830651283264,0.0
356,1,356,-1,-1,0.07982868819853428,-0.28649486706058613,1,0.4309419264728351,0.001,0.5599963665008545,1.0
357,1,357,1,1,2.0999130510773085,-1.0783236291057814,1,0.4309419264728351,0.001,0.44899776577949524,0.0
358,1,358,1,1,0.9627419177493379,-1.0783236291057814,1,0.4309419264728351,0.001,0.35799893736839294,0.0
359,1,359,-1,1,0.01859890475997228,-0.28649486706058613,1,0.4309419264728351,0.001,0.502997100353241,0.0
360,1,360,-1,-1,-1.381520813216519,-0.28649486706058613,1,0.4309419264728351,0.001,1.9240338802337646,1.0
361,1,361,-1,-1,-0.4281573380529928,-0.28649486706058613,1,0.4309419264728351,0.001,1.7610262632369995,0.0
362,1,362,1,1,1.3989452009387233,-1.0783236291057814,1,0.4309419264728351,0.001,0.8519926071166992,0.0
363,1,363,1,1,1.7890049099093315,-1.0783236291057814,1,0.4309419264728351,0.001,1.4270106554031372,0.0
364,1,364,1,1,1.6355337861765786,-1.0783236291057814,1,0.4309419264728351,0.001,0.38999852538108826,0.0
365,1,365,-1,-1,-1.0265576088165038,-0.28649486706058613,1,0.4309419264728351,0.001,0.44599780440330505,0.0
366,1,366,-1,1,-0.1800139900550657,-0.28649486706058613,1,0.4309419264728351,0.001,0.3669988214969635,0.0
367,1,367,-1,1,1.1858512796320073,-0.28649486706058613,1,0.4309419264728351,0.001,1.248002290725708,0.0
368,1,368,-1,1,1.847678290707798,-0.28649486706058613,1,0.4309419264728351,0.001,0.9769909977912903,0.0
369,1,369,1,1,1.521929875457365,-1.0783236291057814,1,0.4309419264728351,0.001,1.242002010345459,0.0
370,1,370,-1,1,0.778371379955622,-0.28649486706058613,1,0.4309419264728351,0.001,0.6109957098960876,0.0
371,1,371,1,1,0.5926997252381079,-1.0783236291057814,1,0.4309419264728351,0.001,0.11700005829334259,0.0
372,1,372,1,1,0.3630649557439029,-1.0783236291057814,1,0.4309419264728351,0.001,0.8009932637214661,0.0
373,1,373,-1,1,-1.203641916488162,-0.28649486706058613,1,0.4309419264728351,0.001,0.5099970102310181,1.0
374,1,374,1,1,1.812236533439927,-1.0783236291057814,1,0.4309419264728351,0.001,0.7599937915802002,1.0
375,1,375,1,1,0.5868446211092211,-1.0783236291057814,1,0.4309419264728351,0.001,1.098995327949524,0.0
376,1,376,-1,1,-1.2527429867618156,-0.28649486706058613,1,0.4309419264728351,0.001,0.4329979717731476,1.0
377,1,377,-1,1,1.9798005437656054,-0.28649486706058613,1,0.4309419264728351,0.001,1.3160054683685303,0.0
378,1,378,1,1,-1.1291062552186693,-1.0783236291057814,1,0.4309419264728351,0.001,0.29799970984458923,0.0
379,1,379,-1,1,1.397603245419803,-0.28649486706058613,1,0.4309419264728351,0.001,0.30499961972236633,0.0
380,1,380,-1,-1,-0.36480965650311675,-0.28649486706058613,1,0.4309419264728351,0.001,0.4619975984096527,0.0
381,1,381,-1,1,1.5844919384772242,-0.28649486706058613,1,0.4309419264728351,0.001,0.8179930448532104,0.0
382,1,382,1,1,1.3270500000085361,-1.0783236291057814,1,0.4309419264728351,0.001,0.8419927358627319,0.0
383,1,383,1,1,-0.4977677760305066,-1.0783236291057814,1,0.4309419264728351,0.001,0.3079995810985565,0.0
384,1,384,-1,1,0.28601934499460613,-0.28649486706058613,1,0.4309419264728351,0.001,0.6529951691627502,0.0
385,1,385,1,1,0.40492783880809063,-1.0783236291057814,1,0.4309419264728351,0.001,0.7229942679405212,0.0
386,1,386,-1,-1,-0.602302299861898,-0.28649486706058613,1,0.4309419264728351,0.001,0.4749974310398102,0.0
387,1,387,-1,-1,-0.22071903482867145,-0.28649486706058613,1,0.4309419264728351,0.001,0.390998512506485,0.0
388,1,388,-1,1,1.1635852255846117,-0.28649486706058613,1,0.4309419264728351,0.001,0.4399978816509247,0.0
389,1,389,-1,-1,-0.6308988163597744,-0.28649486706058613,1,0.4309419264728351,0.001,0.2859998643398285,1.0
390,1,390,1,-1,1.8064559708067711,-1.0783236291057814,1,0.4309419264728351,0.001,0.7719936370849609,0.0
391,1,391,1,1,-0.3466893807083853,-1.0783236291057814,1,0.4309419264728351,0.001,0.1490001231431961,0.0
392,1,392,1,-1,-2.278283141331382,-1.0783236291057814,1,0.4309419264728351,0.001,0.4969971477985382,0.0
393,1,393,-1,1,0.15714264705622794,-0.28649486706058613,1,0.4309419264728351,0.001,0.9169917702674866,0.0
394,1,394,-1,-1,-2.290753396212202,-0.28649486706058613,1,0.4309419264728351,0.001,0.5339967012405396,0.0
395,1,395,1,1,0.4964770124422454,-1.0783236291057814,1,0.4309419264728351,0.001,0.34099915623664856,0.0
396,1,396,-1,-1,-0.07888372431768176,-0.28649486706058613,1,0.4309419264728351,0.001,0.30499961972236633,1.0
397,1,397,1,-1,-1.1112442722960807,-1.0783236291057814,1,0.4309419264728351,0.001,0.4789973795413971,0.0
398,1,398,1,1,0.5484581513345189,-1.0783236291057814,1,0.4309419264728351,0.001,0.24900032579898834,0.0
399,1,399,-1,1,1.215260012263343,-0.28649486706058613,1,0.4309419264728351,0.001,0.44599780440330505,0.0
400,1,400,-1,1,0.4829475056503348,-0.28649486706058613,1,0.4309419264728351,0.001,0.5179969072341919,0.0
401,1,401,-1,1,-0.5721676693049036,-0.28649486706058613,1,0.4309419264728351,0.001,0.3239993751049042,0.0
402,1,402,1,1,-0.28887216065118304,-1.0783236291057814,1,0.4309419264728351,0.001,0.29099979996681213,0.0
403,1,403,-1,-1,0.44763046827425956,-0.28649486706058613,1,0.4309419264728351,0.001,0.4379979074001312,1.0
404,1,404,-1,1,2.0419581521850407,-0.28649486706058613,1,0.4309419264728351,0.001,1.2910043001174927,1.0
405,1,405,-1,-1,-0.23895248563075788,-0.28649486706058613,1,0.4309419264728351,0.001,0.2200002670288086,0.0
406,1,406,-1,1,1.2361505784478677,-0.28649486706058613,1,0.4309419264728351,0.001,0.262000173330307,0.0
407,1,407,1,1,0.08942165221885223,-1.0783236291057814,1,0.4309419264728351,0.001,0.25600025057792664,0.0
408,1,408,-1,1,0.03162372800396407,-0.28649486706058613,1,0.4309419264728351,0.001,3.3129422664642334,0.0
409,1,409,-1,-1,0.1895101262239941,-0.28649486706058613,1,0.4309419264728351,0.001,0.19500021636486053,0.0
410,1,410,-1,-1,-2.1724186480190095,-0.28649486706058613,1,0.4309419264728351,0.001,1.1729987859725952,1.0
411,1,411,1,1,0.9242693974200715,-1.0783236291057814,1,0.4309419264728351,0.001,0.08399999141693115,0.0
412,1,412,1,-1,0.3238403256944876,-1.0783236291057814,1,0.4309419264728351,0.001,1.9180335998535156,0.0
413,1,413,1,1,0.476463139620554,-1.0783236291057814,1,0.4309419264728351,0.001,1.0049909353256226,0.0
414,1,414,-1,-1,-1.0763744404127102,-0.28649486706058613,1,0.4309419264728351,0.001,1.8310295343399048,1.0
415,1,415,1,-1,0.6166103292545315,-1.0783236291057814,1,0.4309419264728351,0.001,1.4530118703842163,0.0
416,1,416,-1,-1,-0.5627420419457327,-0.28649486706058613,1,0.4309419264728351,0.001,2.530998945236206,1.0
417,1,417,1,1,-0.8770912691144794,-1.0783236291057814,1,0.4309419264728351,0.001,0.40799829363822937,0.0
418,1,418,-1,1,-0.08599457559496881,-0.28649486706058613,1,0.4309419264728351,0.001,0.44199785590171814,0.0
419,1,419,1,-1,0.20639737576390782,-1.0783236291057814,1,0.4309419264728351,0.001,0.3459990918636322,0.0
420,1,420,1,1,-0.4149164113784056,-1.0783236291057814,1,0.4309419264728351,0.001,0.26300016045570374,0.0
421,1,421,1,1,-0.2109933458339993,-1.0783236291057814,1,0.4309419264728351,0.001,1.0299921035766602,0.0
422,1,422,1,-1,0.38986119083794035,-1.0783236291057814,1,0.4309419264728351,0.001,0.9609912037849426,0.0
423,1,423,1,1,0.6304941715578342,-1.0783236291057814,1,0.4309419264728351,0.001,0.9839909076690674,0.0
424,1,424,-1,1,0.49902560121233785,-0.28649486706058613,1,0.4309419264728351,0.001,1.7330249547958374,1.0
425,1,425,1,1,0.7539014464973209,-1.0783236291057814,1,0.4309419264728351,0.001,0.4549976885318756,0.0
426,1,426,-1,-1,0.07401212599550921,-0.28649486706058613,1,0.4309419264728351,0.001,0.9649911522865295,1.0
427,1,427,1,1,1.9074538033766903,-1.0783236291057814,1,0.4309419264728351,0.001,1.264003038406372,0.0
428,1,428,-1,1,0.4883453470744881,-0.28649486706058613,1,0.4309419264728351,0.001,1.2390018701553345,1.0
429,1,429,1,1,-0.5344595337800324,-1.0783236291057814,1,0.4309419264728351,0.001,0.5639963150024414,0.0
430,1,430,1,-1,-0.7162864743340999,-1.0783236291057814,1,0.4309419264728351,0.001,0.23000028729438782,0.0
431,1,431,1,-1,-1.5184604679758387,-1.0783236291057814,1,0.4309419264728351,0.001,0.5509964823722839,0.0
432,1,432,1,-1,-0.4672621539189987,-1.0783236291057814,1,0.4309419264728351,0.001,0.6409953236579895,1.0
433,1,433,-1,1,-1.3864999655547918,-0.28649486706058613,1,0.4309419264728351,0.001,0.6209955811500549,0.0
434,1,434,-1,-1,0.12653183523303946,-0.28649486706058613,1,0.4309419264728351,0.001,0.5409966111183167,0.0
435,1,435,-1,1,-0.2859572825571757,-0.28649486706058613,1,0.4309419264728351,0.001,2.812978506088257,0.0
436,1,436,-1,1,0.8252161620417852,-0.28649486706058613,1,0.4309419264728351,0.001,0.22300027310848236,0.0
437,1,437,1,-1,1.4779196971349187,-1.0783236291057814,1,0.4309419264728351,0.001,0.9579912424087524,0.0
438,1,438,1,-1,0.22440910912457235,-1.0783236291057814,1,0.4309419264728351,0.001,0.3349992334842682,0.0
439,1,439,-1,1,0.13932546174504218,-0.28649486706058613,1,0.4309419264728351,0.001,1.0289920568466187,1.0
440,1,440,-1,1,0.5211048325716422,-0.28649486706058613,1,0.4309419264728351,0.001,0.1850001960992813,1.0
441,1,441,1,-1,-2.7689387254116933,-1.0783236291057814,1,0.4309419264728351,0.001,0.10900004208087921,0.0
442,1,442,-1,1,0.40850661084064704,-0.28649486706058613,1,0.4309419264728351,0.001,0.9169917702674866,0.0
443,1,443,-1,-1,-2.2388700711389373,-0.28649486706058613,1,0.4309419264728351,0.001,0.2290002852678299,0.0
444,1,444,1,1,2.467241031473799,-1.0783236291057814,1,0.4309419264728351,0.001,0.7369940876960754,0.0
445,1,445,-1,1,0.7049583045840906,-0.28649486706058613,1,0.4309419264728351,0.001,0.5309967398643494,0.0
446,1,446,1,-1,0.005252657745971501,-1.0783236291057814,1,0.4309419264728351,0.001,0.21000024676322937,0.0
447,1,447,1,-1,0.3679436301280423,-1.0783236291057814,1,0.4309419264728351,0.001,1.14299738407135,0.0
448,1,448,1,-1,-2.700702419073838,-1.0783236291057814,1,0.4309419264728351,0.001,0.34699907898902893,0.0
449,1,449,1,-1,-1.3081146882412753,-1.0783236291057814,1,0.4309419264728351,0.001,1.0499930381774902,0.0
450,1,450,-1,1,0.2803862495697379,-0.28649486706058613,1,0.4309419264728351,0.001,1.9580354690551758,1.0
451,1,451,1,-1,-1.4546829230535827,-1.0783236291057814,1,0.4309419264728351,0.001,0.631995439529419,0.0
452,1,452,-1,1,0.818526591003285,-0.28649486706058613,1,0.4309419264728351,0.001,1.4320108890533447,0.0
453,1,453,-1,1,1.5299526582618868,-0.28649486706058613,1,0.4309419264728351,0.001,0.6109957098960876,1.0
454,1,454,-1,-1,-0.972594906609858,-0.28649486706058613,1,0.4309419264728351,0.001,0.2750000059604645,0.0
455,1,455,-1,1,0.9005586242585628,-0.28649486706058613,1,0.4309419264728351,0.001,0.5439965724945068,0.0
456,1,456,1,1,0.4511374932481926,-1.0783236291057814,1,0.4309419264728351,0.001,0.8189930319786072,1.0
457,1,457,-1,-1,-0.0921210437248774,-0.28649486706058613,1,0.4309419264728351,0.001,0.24200031161308289,0.0
458,1,458,1,-1,0.4615535233797483,-1.0783236291057814,1,0.4309419264728351,0.001,0.21300025284290314,0.0
459,1,459,-1,-1,-0.3915006525171031,-0.28649486706058613,1,0.4309419264728351,0.001,2.3090150356292725,1.0
460,1,460,1,1,1.212786429637237,-1.0783236291057814,1,0.4309419264728351,0.001,0.4269980490207672,0.0
461,1,461,1,-1,-2.1295930459298757,-1.0783236291057814,1,0.4309419264728351,0.001,1.4360110759735107,0.0
462,1,462,-1,-1,-1.1559691884816545,-0.28649486706058613,1,0.4309419264728351,0.001,0.23200029134750366,1.0
463,1,463,1,-1,0.5860371002946063,-1.0783236291057814,1,0.4309419264728351,0.001,0.5199968814849854,0.0
464,1,464,-1,1,1.016375245438865,-0.28649486706058613,1,0.4309419264728351,0.001,2.022035837173462,0.0
465,1,465,1,1,-0.73423569056534,-1.0783236291057814,1,0.4309419264728351,0.001,0.19600021839141846,0.0
466,1,466,1,1,-0.007841786354393698,-1.0783236291057814,1,0.4309419264728351,0.001,1.2860040664672852,0.0
467,1,467,-1,1,0.1731238109219047,-0.28649486706058613,1,0.4309419264728351,0.001,1.3460068702697754,0.0
468,1,468,1,-1,-2.3410546187496566,-1.0783236291057814,1,0.4309419264728351,0.001,0.9719910621643066,0.0
469,1,469,-1,1,-0.2656255556328694,-0.28649486706058613,1,0.4309419264728351,0.001,0.9879908561706543,0.0
470,1,470,1,-1,-2.3359518015404244,-1.0783236291057814,1,0.4309419264728351,0.001,0.5819960832595825,0.0
471,1,471,-1,-1,-0.08415749478862566,-0.28649486706058613,1,0.4309419264728351,0.001,0.6359953880310059,0.0
472,1,472,1,-1,-1.7759519996673354,-1.0783236291057814,1,0.4309419264728351,0.001,0.5189968943595886,1.0
473,1,473,1,1,-0.3228740845439382,-1.0783236291057814,1,0.4309419264728351,0.001,0.17700017988681793,0.0
474,1,474,1,-1,-1.1121393240284951,-1.0783236291057814,1,0.4309419264728351,0.001,3.9508960247039795,0.0
475,1,475,1,-1,-0.6327927567347555,-1.0783236291057814,1,0.4309419264728351,0.001,0.38999852538108826,0.0
476,1,476,-1,-1,-0.9237001677230522,-0.28649486706058613,1,0.4309419264728351,0.001,1.2150007486343384,0.0
477,1,477,-1,1,0.4838164480223417,-0.28649486706058613,1,0.4309419264728351,0.001,2.9229705333709717,1.0
478,1,478,-1,1,0.8728319865118138,-0.28649486706058613,1,0.4309419264728351,0.001,1.5050143003463745,0.0
479,1,479,1,1,1.142613591662979,-1.0783236291057814,1,0.4309419264728351,0.001,0.7309941649436951,0.0
480,1,480,-1,1,0.3106698515989439,-0.28649486706058613,1,0.4309419264728351,0.001,2.4790027141571045,1.0
481,1,481,1,-1,-1.7847004723436066,-1.0783236291057814,1,0.4309419264728351,0.001,0.18600019812583923,1.0
482,1,482,1,-1,-1.9784726021969037,-1.0783236291057814,1,0.4309419264728351,0.001,0.1800001859664917,0.0
483,1,483,1,-1,-2.149788551299129,-1.0783236291057814,1,0.4309419264728351,0.001,1.2100005149841309,0.0
484,1,484,-1,1,0.2614548245690906,-0.28649486706058613,1,0.4309419264728351,0.001,0.907991886138916,0.0
485,1,485,-1,-1,0.22148214290807655,-0.28649486706058613,1,0.4309419264728351,0.001,1.8820319175720215,0.0
486,1,486,-1,-1,0.5395460518223729,-0.28649486706058613,1,0.4309419264728351,0.001,0.6599950790405273,0.0
487,1,487,1,1,-0.5604853793950448,-1.0783236291057814,1,0.4309419264728351,0.001,0.33699920773506165,0.0
488,1,488,-1,-1,0.988212775162453,-0.28649486706058613,1,0.4309419264728351,0.001,0.3949984610080719,1.0
489,1,489,-1,1,1.9316666269000706,-0.28649486706058613,1,0.4309419264728351,0.001,0.5809960961341858,0.0
490,1,490,-1,1,1.7205060296819463,-0.28649486706058613,1,0.4309419264728351,0.001,0.31899943947792053,0.0
491,1,491,-1,-1,-0.08993420146343356,-0.28649486706058613,1,0.4309419264728351,0.001,0.49899712204933167,0.0
492,1,492,1,1,0.04721204299120896,-1.0783236291057814,1,0.4309419264728351,0.001,0.40699830651283264,0.0
493,1,493,1,1,1.4184023663831247,-1.0783236291057814,1,0.4309419264728351,0.001,0.33399924635887146,0.0
494,1,494,-1,-1,0.3789640076384764,-0.28649486706058613,1,0.4309419264728351,0.001,0.6829947829246521,0.0
495,1,495,-1,-1,-3.2334266283694526,-0.28649486706058613,1,0.4309419264728351,0.001,0.708994448184967,0.0
496,1,496,-1,-1,-1.1548032270651774,-0.28649486706058613,1,0.4309419264728351,0.001,1.1609982252120972,1.0
497,1,497,-1,-1,-0.927697105842699,-0.28649486706058613,1,0.4309419264728351,0.001,1.0169914960861206,0.0
498,1,498,1,-1,-1.2052511501520633,-1.0783236291057814,1,0.4309419264728351,0.001,0.22600027918815613,0.0
499,1,499,1,1,3.3767645605819023,-1.0783236291057814,1,0.4309419264728351,0.001,0.3309992849826813,0.0
500,1,500,1,1,1.1026474086401568,-1.0783236291057814,1,0.4309419264728351,0.001,0.1260000765323639,0.0
501,1,501,1,1,1.1019926569925709,-1.0783236291057814,1,0.4309419264728351,0.001,0.9119918346405029,1.0
502,1,502,1,1,0.425024369269029,-1.0783236291057814,1,0.4309419264728351,0.001,1.5510164499282837,0.0
503,1,503,1,-1,1.4363635520750817,-1.0783236291057814,1,0.4309419264728351,0.001,0.28799983859062195,0.0
504,1,504,1,-1,-1.6091396910513862,-1.0783236291057814,1,0.4309419264728351,0.001,0.7169943451881409,0.0
505,1,505,1,-1,0.6059868742663057,-1.0783236291057814,1,0.4309419264728351,0.001,0.4329979717731476,0.0
506,1,506,-1,1,0.1425693730151691,-0.28649486706058613,1,0.4309419264728351,0.001,0.6489952206611633,0.0
507,1,507,-1,-1,-0.29455810213829253,-0.28649486706058613,1,0.4309419264728351,0.001,0.3529990017414093,0.0
508,1,508,1,-1,-0.6951407731847458,-1.0783236291057814,1,0.4309419264728351,0.001,1.0679938793182373,0.0
509,1,509,-1,1,0.7014024371060157,-0.28649486706058613,1,0.4309419264728351,0.001,1.762026309967041,0.0
510,1,510,-1,-1,0.18361623985389597,-0.28649486706058613,1,0.4309419264728351,0.001,1.128996729850769,1.0
511,1,511,-1,-1,-1.1635734395552266,-0.28649486706058613,1,0.4309419264728351,0.001,1.5450161695480347,0.0
512,1,512,-1,1,-1.0355847582124311,-0.28649486706058613,1,0.4309419264728351,0.001,0.44899776577949524,0.0
513,1,513,1,-1,1.6773759305252853,-1.0783236291057814,1,0.4309419264728351,0.001,0.3219994008541107,0.0
514,1,514,-1,1,0.5658798730017315,-0.28649486706058613,1,0.4309419264728351,0.001,1.9020328521728516,0.0
515,1,515,-1,-1,0.9641859435483331,-0.28649486706058613,1,0.4309419264728351,0.001,0.7749935984611511,1.0
516,1,516,1,-1,-0.8575661660509765,-1.0783236291057814,1,0.4309419264728351,0.001,1.5600168704986572,0.0
517,1,517,-1,1,0.8375913923341997,-0.28649486706058613,1,0.4309419264728351,0.001,0.5119969844818115,1.0
518,1,518,-1,-1,2.264809095512332,-0.28649486706058613,1,0.4309419264728351,0.001,0.11900006234645844,0.0
519,1,519,1,1,1.0658945686723562,-1.0783236291057814,1,0.4309419264728351,0.001,1.4080097675323486,0.0
520,1,520,-1,1,-0.035738229551356526,-0.28649486706058613,1,0.4309419264728351,0.001,0.3699987828731537,0.0
521,1,521,-1,1,0.15206422268869646,-0.28649486706058613,1,0.4309419264728351,0.001,0.33999916911125183,0.0
522,1,522,-1,-1,0.3191961817100968,-0.28649486706058613,1,0.4309419264728351,0.001,0.1980002224445343,0.0
523,1,523,-1,-1,-0.9049152376742962,-0.28649486706058613,1,0.4309419264728351,0.001,2.233020544052124,1.0
524,1,524,-1,1,0.9388772524004289,-0.28649486706058613,1,0.4309419264728351,0.001,0.8469926714897156,0.0
525,1,525,1,1,0.4409714973939377,-1.0783236291057814,1,0.4309419264728351,0.001,0.5299967527389526,1.0
526,1,526,-1,-1,0.6919970558620405,-0.28649486706058613,1,0.4309419264728351,0.001,0.16400015354156494,0.0
527,1,527,1,-1,-0.7320907603412333,-1.0783236291057814,1,0.4309419264728351,0.001,0.3709987699985504,0.0
528,1,528,1,-1,-2.5766601951704486,-1.0783236291057814,1,0.4309419264728351,0.001,0.35799893736839294,0.0
529,1,529,-1,1,-0.6392492656287347,-0.28649486706058613,1,0.4309419264728351,0.001,0.45699766278266907,0.0
530,1,530,-1,-1,-0.7063271096319883,-0.28649486706058613,1,0.4309419264728351,0.001,0.8939920663833618,0.0
531,1,531,1,1,0.14329393259443313,-1.0783236291057814,1,0.4309419264728351,0.001,1.9660358428955078,0.0
532,1,532,1,-1,-0.4765316398974955,-1.0783236291057814,1,0.4309419264728351,0.001,1.0659937858581543,0.0
533,1,533,-1,1,0.43075668686198765,-0.28649486706058613,1,0.4309419264728351,0.001,0.4509977400302887,1.0
534,1,534,-1,1,-0.046836069352339305,-0.28649486706058613,1,0.4309419264728351,0.001,0.18600019812583923,0.0
535,1,535,1,1,-0.0061910491126453415,-1.0783236291057814,1,0.4309419264728351,0.001,0.22800028324127197,0.0
536,1,536,1,1,1.2445051538426966,-1.0783236291057814,1,0.4309419264728351,0.001,0.4509977400302887,0.0
537,1,537,-1,1,0.9385813987306961,-0.28649486706058613,1,0.4309419264728351,0.001,0.2859998643398285,1.0
538,1,538,-1,-1,-1.0815043669331548,-0.28649486706058613,1,0.4309419264728351,0.001,0.41099825501441956,0.0
539,1,539,1,-1,-1.9601960474160292,-1.0783236291057814,1,0.4309419264728351,0.001,1.0189915895462036,0.0
540,1,540,1,1,-1.2305514446351162,-1.0783236291057814,1,0.4309419264728351,0.001,0.7869934439659119,0.0
541,1,541,-1,1,0.3620935524359853,-0.28649486706058613,1,0.4309419264728351,0.001,1.011991262435913,1.0
542,1,542,-1,1,0.4715320467592272,-0.28649486706058613,1,0.4309419264728351,0.001,0.885992169380188,1.0
543,1,543,-1,-1,-0.06010854353158368,-0.28649486706058613,1,0.4309419264728351,0.001,1.0939950942993164,1.0
544,1,544,-1,1,0.15419095611335298,-0.28649486706058613,1,0.4309419264728351,0.001,0.9949907660484314,0.0
545,1,545,1,1,0.8196664776404998,-1.0783236291057814,1,0.4309419264728351,0.001,0.3109995424747467,0.0
546,1,546,1,1,0.38472774378706137,-1.0783236291057814,1,0.4309419264728351,0.001,0.5569964051246643,0.0
547,1,547,1,-1,-2.9194048951055085,-1.0783236291057814,1,0.4309419264728351,0.001,1.0839946269989014,0.0
548,1,548,1,-1,-0.8433608495566771,-1.0783236291057814,1,0.4309419264728351,0.001,0.23300029337406158,0.0
549,1,549,-1,-1,-1.7421864751997662,-0.28649486706058613,1,0.4309419264728351,0.001,0.16100014746189117,0.0
550,1,550,-1,-1,-1.4522034803221655,-0.28649486706058613,1,0.4309419264728351,0.001,0.38599857687950134,0.0
551,1,551,-1,-1,-1.0809064701990985,-0.28649486706058613,1,0.4309419264728351,0.001,0.8549925684928894,0.0
552,1,552,1,-1,-0.4787720034392311,-1.0783236291057814,1,0.4309419264728351,0.001,0.3449991047382355,0.0
553,1,553,1,1,0.010735121339110809,-1.0783236291057814,1,0.4309419264728351,0.001,0.44899776577949524,0.0
554,1,554,1,1,1.8660692177331868,-1.0783236291057814,1,0.4309419264728351,0.001,0.2959997355937958,0.0
555,1,555,1,-1,-0.053753249335936615,-1.0783236291057814,1,0.4309419264728351,0.001,0.12900008261203766,0.0
556,1,556,-1,-1,-0.0658683502270232,-0.28649486706058613,1,0.4309419264728351,0.001,0.2969997227191925,0.0
557,1,557,1,-1,0.1711514404383523,-1.0783236291057814,1,0.4309419264728351,0.001,0.4399978816509247,0.0
558,1,558,1,-1,-0.8307694467061238,-1.0783236291057814,1,0.4309419264728351,0.001,0.2969997227191925,0.0
559,1,559,1,-1,-1.4076833471097765,-1.0783236291057814,1,0.4309419264728351,0.001,1.098995327949524,0.0
560,1,560,-1,1,-0.03471327299156113,-0.28649486706058613,1,0.4309419264728351,0.001,0.3629988729953766,0.0
561,1,561,-1,1,2.43139991689651,-0.28649486706058613,1,0.4309419264728351,0.001,0.9429914355278015,0.0
562,1,562,1,1,-0.6926418391436338,-1.0783236291057814,1,0.4309419264728351,0.001,1.114996075630188,0.0
563,1,563,-1,-1,0.13209068312667072,-0.28649486706058613,1,0.4309419264728351,0.001,1.5170148611068726,1.0
564,1,564,1,1,0.3720073336011193,-1.0783236291057814,1,0.4309419264728351,0.001,0.9389914870262146,0.0
565,1,565,1,-1,-1.8372582749168955,-1.0783236291057814,1,0.4309419264728351,0.001,0.14700011909008026,0.0
566,1,566,1,-1,-0.7973477043044488,-1.0783236291057814,1,0.4309419264728351,0.001,0.08199998736381531,0.0
567,1,567,-1,1,0.543671416862438,-0.28649486706058613,1,0.4309419264728351,0.001,2.0060369968414307,1.0
568,1,568,-1,1,2.2296652905353316,-0.28649486706058613,1,0.4309419264728351,0.001,0.9819909334182739,0.0
569,1,569,-1,1,-0.18169839792793685,-0.28649486706058613,1,0.4309419264728351,0.001,1.5980186462402344,1.0
570,1,570,1,-1,-0.9092353244169684,-1.0783236291057814,1,0.4309419264728351,0.001,0.8119931221008301,0.0
571,1,571,-1,1,0.27263741481544224,-0.28649486706058613,1,0.4309419264728351,0.001,0.2939997613430023,0.0
572,1,572,-1,-1,-1.4828646745517013,-0.28649486706058613,1,0.4309419264728351,0.001,2.1840240955352783,1.0
573,1,573,1,-1,-1.9579401959632916,-1.0783236291057814,1,0.4309419264728351,0.001,0.38999852538108826,0.0
574,1,574,1,1,0.5117053886746459,-1.0783236291057814,1,0.4309419264728351,0.001,0.6449952721595764,0.0
575,1,575,-1,1,-0.04502231826421854,-0.28649486706058613,1,0.4309419264728351,0.001,1.7270246744155884,0.0
576,1,576,-1,1,0.46533339168452276,-0.28649486706058613,1,0.4309419264728351,0.001,0.7339941263198853,0.0
577,1,577,-1,1,0.85909097749002,-0.28649486706058613,1,0.4309419264728351,0.001,0.8889921307563782,1.0
578,1,578,1,-1,0.7241244184691602,-1.0783236291057814,1,0.4309419264728351,0.001,0.6299954652786255,0.0
579,1,579,1,-1,-0.9968157213383497,-1.0783236291057814,1,0.4309419264728351,0.001,0.5629963278770447,0.0
580,1,580,-1,1,-0.5969998354618729,-0.28649486706058613,1,0.4309419264728351,0.001,0.46299758553504944,1.0
581,1,581,1,1,0.5097614522883385,-1.0783236291057814,1,0.4309419264728351,0.001,0.10700003802776337,0.0
582,1,582,1,1,-0.43537953294471254,-1.0783236291057814,1,0.4309419264728351,0.001,1.6960232257843018,0.0
583,1,583,1,-1,-1.5331205544824202,-1.0783236291057814,1,0.4309419264728351,0.001,0.5049970746040344,0.0
584,1,584,-1,-1,-2.1795200431684227,-0.28649486706058613,1,0.4309419264728351,0.001,0.6079957485198975,1.0
585,1,585,1,-1,-1.1428984885833713,-1.0783236291057814,1,0.4309419264728351,0.001,0.6809948086738586,0.0
586,1,586,-1,-1,-1.3296355340150325,-0.28649486706058613,1,0.4309419264728351,0.001,1.645020842552185,1.0
587,1,587,1,1,0.8975803214656216,-1.0783236291057814,1,0.4309419264728351,0.001,0.6489952206611633,0.0
588,1,588,-1,1,-1.9863466709902977,-0.28649486706058613,1,0.4309419264728351,0.001,1.377008318901062,0.0
589,1,589,1,1,1.175375532359857,-1.0783236291057814,1,0.4309419264728351,0.001,0.5479965209960938,0.0
590,1,590,-1,-1,-1.2877666989796932,-0.28649486706058613,1,0.4309419264728351,0.001,0.3179994523525238,0.0
591,1,591,1,1,0.7967488778430278,-1.0783236291057814,1,0.4309419264728351,0.001,0.6809948086738586,0.0
592,1,592,-1,1,-1.038719931624439,-0.28649486706058613,1,0.4309419264728351,0.001,1.899032711982727,1.0
593,1,593,-1,-1,0.4178709432468939,-0.28649486706058613,1,0.4309419264728351,0.001,0.35099902749061584,1.0
594,1,594,-1,1,0.5634690486003948,-0.28649486706058613,1,0.4309419264728351,0.001,1.1979999542236328,0.0
595,1,595,-1,1,2.601221879438468,-0.28649486706058613,1,0.4309419264728351,0.001,0.7799935340881348,0.0
596,1,596,1,-1,-0.2136576163888257,-1.0783236291057814,1,0.4309419264728351,0.001,0.9409914612770081,0.0
597,1,597,1,-1,-1.885204484273338,-1.0783236291057814,1,0.4309419264728351,0.001,0.41399821639060974,0.0
598,1,598,1,1,0.49091040426024424,-1.0783236291057814,1,0.4309419264728351,0.001,0.9989907145500183,0.0
599,1,599,1,1,-0.9367521226057947,-1.0783236291057814,1,0.4309419264728351,0.001,0.17200016975402832,0.0
600,1,600,1,1,1.4040942625661836,-1.0783236291057814,1,0.4309419264728351,0.001,0.6249955296516418,0.0
601,1,601,1,1,2.55309022764642,-1.0783236291057814,1,0.4309419264728351,0.001,0.31599947810173035,0.0
602,1,602,1,-1,-1.4115882466995915,-1.0783236291057814,1,0.4309419264728351,0.001,0.1130000501871109,0.0
603,1,603,-1,-1,-0.08479924555173901,-0.28649486706058613,1,0.4309419264728351,0.001,0.4659975469112396,0.0
604,1,604,1,1,-0.08760868303318337,-1.0783236291057814,1,0.4309419264728351,0.001,0.17200016975402832,0.0
605,1,605,1,-1,-2.2470827912799907,-1.0783236291057814,1,0.4309419264728351,0.001,1.8420300483703613,0.0
606,1,606,1,1,1.9710595572362275,-1.0783236291057814,1,0.4309419264728351,0.001,0.3219994008541107,0.0
607,1,607,1,1,1.2477956486606194,-1.0783236291057814,1,0.4309419264728351,0.001,0.5769961476325989,0.0
608,1,608,-1,-1,0.20872060606500076,-0.28649486706058613,1,0.4309419264728351,0.001,0.47099748253822327,0.0
609,1,609,1,-1,-1.430722983195416,-1.0783236291057814,1,0.4309419264728351,0.001,1.1489976644515991,0.0
610,1,610,-1,1,-0.2701491811064013,-0.28649486706058613,1,0.4309419264728351,0.001,0.4269980490207672,0.0
611,1,611,1,1,-0.5697111829678225,-1.0783236291057814,1,0.4309419264728351,0.001,0.7499939203262329,0.0
612,1,612,-1,1,1.5818570051381482,-0.28649486706058613,1,0.4309419264728351,0.001,0.3849985897541046,0.0
613,1,613,1,-1,-0.4790189223487527,-1.0783236291057814,1,0.4309419264728351,0.001,0.24000030755996704,0.0
614,1,614,1,-1,-1.6029819293766858,-1.0783236291057814,1,0.4309419264728351,0.001,0.8629924654960632,0.0
615,1,615,1,1,1.6121029612124067,-1.0783236291057814,1,0.4309419264728351,0.001,0.4759974181652069,0.0
616,1,616,1,1,0.6194729531660156,-1.0783236291057814,1,0.4309419264728351,0.001,0.38299861550331116,0.0
617,1,617,-1,-1,-2.053501303839219,-0.28649486706058613,1,0.4309419264728351,0.001,2.1830241680145264,0.0
618,1,618,1,-1,-0.5000563605820967,-1.0783236291057814,1,0.4309419264728351,0.001,1.7690266370773315,0.0
619,1,619,-1,-1,-0.2666476622372215,-0.28649486706058613,1,0.4309419264728351,0.001,0.36199888586997986,0.0
620,1,620,1,1,0.8194562521907123,-1.0783236291057814,1,0.4309419264728351,0.001,1.2370017766952515,0.0
621,1,621,1,-1,1.7879308289909694,-1.0783236291057814,1,0.4309419264728351,0.001,0.6919946670532227,0.0
622,1,622,1,1,1.1106343163482637,-1.0783236291057814,1,0.4309419264728351,0.001,0.28399989008903503,0.0
623,1,623,-1,-1,-1.549433439265567,-0.28649486706058613,1,0.4309419264728351,0.001,1.4990140199661255,0.0
624,1,624,-1,-1,-2.57288204767593,-0.28649486706058613,1,0.4309419264728351,0.001,1.5780177116394043,0.0
625,1,625,-1,1,-1.4015043909806777,-0.28649486706058613,1,0.4309419264728351,0.001,0.7249942421913147,1.0
626,1,626,1,1,0.42623894515959093,-1.0783236291057814,1,0.4309419264728351,0.001,0.13800010085105896,0.0
627,1,627,1,-1,0.5121817406283462,-1.0783236291057814,1,0.4309419264728351,0.001,0.2610001862049103,0.0
628,1,628,-1,1,0.4272377578560958,-0.28649486706058613,1,0.4309419264728351,0.001,0.3139995038509369,0.0
629,1,629,-1,-1,-0.8798851210161945,-0.28649486706058613,1,0.4309419264728351,0.001,0.3659988343715668,1.0
630,1,630,1,1,0.13218617011384115,-1.0783236291057814,1,0.4309419264728351,0.001,0.5659962892532349,0.0
631,1,631,-1,-1,-0.13676471727110617,-0.28649486706058613,1,0.4309419264728351,0.001,1.6220197677612305,0.0
632,1,632,1,1,0.6375724404317267,-1.0783236291057814,1,0.4309419264728351,0.001,0.8509926199913025,0.0
633,1,633,-1,-1,0.36285409834087967,-0.28649486706058613,1,0.4309419264728351,0.001,0.6269955039024353,0.0
634,1,634,-1,-1,0.9520627874132079,-0.28649486706058613,1,0.4309419264728351,0.001,1.6420207023620605,1.0
635,1,635,-1,1,0.37216104473982964,-0.28649486706058613,1,0.4309419264728351,0.001,0.8809922337532043,1.0
636,1,636,-1,1,0.9865277538918518,-0.28649486706058613,1,0.4309419264728351,0.001,0.6619950532913208,0.0
637,1,637,1,-1,-2.5900491831242984,-1.0783236291057814,1,0.4309419264728351,0.001,0.5209968686103821,0.0
638,1,638,-1,-1,-0.25072928678591355,-0.28649486706058613,1,0.4309419264728351,0.001,1.0359923839569092,0.0
639,1,639,-1,1,1.215373316954571,-0.28649486706058613,1,0.4309419264728351,0.001,1.0249918699264526,0.0
640,1,640,1,-1,-0.465212326457107,-1.0783236291057814,1,0.4309419264728351,0.001,0.1400001049041748,0.0
641,1,641,1,1,0.21572848119793953,-1.0783236291057814,1,0.4309419264728351,0.001,0.874992311000824,0.0
642,1,642,-1,-1,0.45981392621034,-0.28649486706058613,1,0.4309419264728351,0.001,0.6259955167770386,1.0
643,1,643,1,-1,-1.2385549115623558,-1.0783236291057814,1,0.4309419264728351,0.001,0.7369940876960754,0.0
644,1,644,-1,-1,0.8200015210855756,-0.28649486706058613,1,0.4309419264728351,0.001,0.35499897599220276,0.0
645,1,645,-1,1,1.5722916902939679,-0.28649486706058613,1,0.4309419264728351,0.001,0.9679911136627197,0.0
646,1,646,-1,-1,-0.07893579759214886,-0.28649486706058613,1,0.4309419264728351,0.001,1.0449928045272827,1.0
647,1,647,1,-1,0.17528716512229003,-1.0783236291057814,1,0.4309419264728351,0.001,0.48099735379219055,0.0
648,1,648,-1,-1,1.055462601744438,-0.28649486706058613,1,0.4309419264728351,0.001,0.5039970874786377,0.0
649,1,649,-1,-1,-0.528438674159051,-0.28649486706058613,1,0.4309419264728351,0.001,1.6480209827423096,1.0
650,1,650,-1,1,0.48013135449374744,-0.28649486706058613,1,0.4309419264728351,0.001,0.6669949889183044,0.0
651,1,651,-1,-1,-0.12246009404751812,-0.28649486706058613,1,0.4309419264728351,0.001,2.8869731426239014,0.0
652,1,652,-1,-1,-0.4153834217746607,-0.28649486706058613,1,0.4309419264728351,0.001,0.14700011909008026,1.0
653,1,653,1,-1,-0.912634518898803,-1.0783236291057814,1,0.4309419264728351,0.001,1.9570354223251343,0.0
654,1,654,1,-1,0.47231847572549235,-1.0783236291057814,1,0.4309419264728351,0.001,0.4119982421398163,0.0
655,1,655,-1,-1,-0.7224031783201047,-0.28649486706058613,1,0.4309419264728351,0.001,3.3119423389434814,0.0
656,1,656,-1,1,0.1819837640578375,-0.28649486706058613,1,0.4309419264728351,0.001,0.3459990918636322,0.0
657,1,657,-1,-1,-2.879033273596898,-0.28649486706058613,1,0.4309419264728351,0.001,0.43199798464775085,0.0
658,1,658,-1,-1,-1.778416872035329,-0.28649486706058613,1,0.4309419264728351,0.001,2.2280209064483643,0.0
659,1,659,1,1,2.1672505330228438,-1.0783236291057814,1,0.4309419264728351,0.001,2.615992784500122,0.0
660,1,660,1,-1,0.42225112891826155,-1.0783236291057814,1,0.4309419264728351,0.001,1.4600121974945068,0.0
661,1,661,-1,-1,-0.7657973799049616,-0.28649486706058613,1,0.4309419264728351,0.001,1.098995327949524,0.0
662,1,662,-1,1,1.037207497367949,-0.28649486706058613,1,0.4309419264728351,0.001,0.5379966497421265,0.0
663,1,663,-1,1,0.5235068476967811,-0.28649486706058613,1,0.4309419264728351,0.001,0.32599934935569763,0.0
664,1,664,1,1,-0.09538236136716571,-1.0783236291057814,1,0.4309419264728351,0.001,0.5419965982437134,0.0
665,1,665,-1,-1,-0.8986926212507846,-0.28649486706058613,1,0.4309419264728351,0.001,0.7299941778182983,1.0
666,1,666,1,1,1.0026126962973843,-1.0783236291057814,1,0.4309419264728351,0.001,0.7269942164421082,0.0
667,1,667,1,1,0.3809392238253355,-1.0783236291057814,1,0.4309419264728351,0.001,0.3079995810985565,0.0
668,1,668,-1,1,-0.4819011583995052,-0.28649486706058613,1,0.4309419264728351,0.001,1.1809991598129272,0.0
669,1,669,-1,-1,-2.031017742398953,-0.28649486706058613,1,0.4309419264728351,0.001,1.104995608329773,0.0
670,1,670,-1,1,2.0350770443580206,-0.28649486706058613,1,0.4309419264728351,0.001,1.6700220108032227,0.0
671,1,671,-1,1,0.3228804624054572,-0.28649486706058613,1,0.4309419264728351,0.001,3.0589606761932373,0.0
672,1,672,1,-1,0.9568428397244269,-1.0783236291057814,1,0.4309419264728351,0.001,1.8230291604995728,0.0
673,1,673,-1,1,1.0656715330149016,-0.28649486706058613,1,0.4309419264728351,0.001,0.19100020825862885,0.0
674,1,674,1,1,0.6436739841856444,-1.0783236291057814,1,0.4309419264728351,0.001,0.4649975597858429,1.0
675,1,675,1,-1,0.09935371824494599,-1.0783236291057814,1,0.4309419264728351,0.001,0.5969958901405334,0.0
676,1,676,1,-1,-0.28680824779400926,-1.0783236291057814,1,0.4309419264728351,0.001,0.9089918732643127,0.0
677,1,677,1,1,0.3000940640659257,-1.0783236291057814,1,0.4309419264728351,0.001,0.2789999544620514,0.0
678,1,678,1,1,0.9725160117171702,-1.0783236291057814,1,0.4309419264728351,0.001,2.1440269947052,0.0
679,1,679,-1,-1,-0.29334150094386524,-0.28649486706058613,1,0.4309419264728351,0.001,0.33399924635887146,0.0
680,1,680,-1,-1,-0.2784368402334592,-0.28649486706058613,1,0.4309419264728351,0.001,0.21800026297569275,0.0
681,1,681,1,1,1.2601811471127706,-1.0783236291057814,1,0.4309419264728351,0.001,0.9329915642738342,0.0
682,1,682,-1,1,2.0264463217490327,-0.28649486706058613,1,0.4309419264728351,0.001,0.4579976499080658,0.0
683,1,683,-1,-1,-0.5114603003182809,-0.28649486706058613,1,0.4309419264728351,0.001,1.3340063095092773,0.0
684,1,684,1,-1,-0.07423389978407091,-1.0783236291057814,1,0.4309419264728351,0.001,1.879031777381897,0.0
685,1,685,1,-1,2.2976533024117116,-1.0783236291057814,1,0.4309419264728351,0.001,0.5789961218833923,0.0
686,1,686,-1,1,1.4441106262425452,-0.28649486706058613,1,0.4309419264728351,0.001,0.3359992206096649,1.0
687,1,687,1,-1,-1.1909748389832036,-1.0783236291057814,1,0.4309419264728351,0.001,0.2899998128414154,0.0
688,1,688,1,-1,-1.5371762434946366,-1.0783236291057814,1,0.4309419264728351,0.001,0.8329928517341614,1.0
689,1,689,-1,1,-0.34427356539780274,-0.28649486706058613,1,0.4309419264728351,0.001,0.5459965467453003,0.0
690,1,690,1,1,0.8877662510869382,-1.0783236291057814,1,0.4309419264728351,0.001,0.39399847388267517,0.0
691,1,691,-1,1,2.175166932206132,-0.28649486706058613,1,0.4309419264728351,0.001,1.496013879776001,1.0
692,1,692,-1,1,0.7037150740399208,-0.28649486706058613,1,0.4309419264728351,0.001,0.24200031161308289,0.0
693,1,693,-1,1,2.0598323148618807,-0.28649486706058613,1,0.4309419264728351,0.001,0.15900014340877533,0.0
694,1,694,-1,1,1.0084493835360844,-0.28649486706058613,1,0.4309419264728351,0.001,2.5060007572174072,1.0
695,1,695,1,1,0.7212233231538598,-1.0783236291057814,1,0.4309419264728351,0.001,0.09300000965595245,0.0
696,1,696,-1,1,1.5493883716493582,-0.28649486706058613,1,0.4309419264728351,0.001,0.9679911136627197,1.0
697,1,697,1,-1,-1.3064958357846026,-1.0783236291057814,1,0.4309419264728351,0.001,0.31299951672554016,0.0
698,1,698,-1,1,0.2817915659056807,-0.28649486706058613,1,0.4309419264728351,0.001,0.19600021839141846,0.0
699,1,699,1,-1,-0.19973627148891587,-1.0783236291057814,1,0.4309419264728351,0.001,0.34799906611442566,0.0
700,1,700,-1,1,1.7844836483014836,-0.28649486706058613,1,0.4309419264728351,0.001,0.6129956841468811,0.0
701,1,701,1,-1,0.8844197242796337,-1.0783236291057814,1,0.4309419264728351,0.001,0.29899969696998596,0.0
702,1,702,1,1,-0.1031475825014887,-1.0783236291057814,1,0.4309419264728351,0.001,0.40399834513664246,0.0
703,1,703,1,-1,-1.8522724252268468,-1.0783236291057814,1,0.4309419264728351,0.001,0.12900008261203766,0.0
704,1,704,-1,1,-0.8232686091778993,-0.28649486706058613,1,0.4309419264728351,0.001,0.46699753403663635,0.0
705,1,705,1,-1,-0.34924970496904684,-1.0783236291057814,1,0.4309419264728351,0.001,0.18200019001960754,0.0
706,1,706,1,1,1.5151390301157797,-1.0783236291057814,1,0.4309419264728351,0.001,0.7329941391944885,0.0
707,1,707,1,-1,0.21215475675907247,-1.0783236291057814,1,0.4309419264728351,0.001,0.977990984916687,0.0
708,1,708,-1,1,0.7308685330464072,-0.28649486706058613,1,0.4309419264728351,0.001,0.3449991047382355,0.0
709,1,709,-1,-1,-0.07647027023041764,-0.28649486706058613,1,0.4309419264728351,0.001,1.268003225326538,1.0
710,1,710,-1,-1,-2.235683030122546,-0.28649486706058613,1,0.4309419264728351,0.001,1.2970045804977417,0.0
711,1,711,-1,-1,-0.037784564083345296,-0.28649486706058613,1,0.4309419264728351,0.001,0.2250002771615982,0.0
712,1,712,1,-1,-0.062046268444653996,-1.0783236291057814,1,0.4309419264728351,0.001,0.412998229265213,0.0
713,1,713,-1,-1,-0.9197259613389287,-0.28649486706058613,1,0.4309419264728351,0.001,0.7809935212135315,1.0
714,1,714,-1,1,0.04621146461401615,-0.28649486706058613,1,0.4309419264728351,0.001,0.6509951949119568,1.0
715,1,715,-1,1,-0.22203104763389525,-0.28649486706058613,1,0.4309419264728351,0.001,1.104995608329773,1.0
716,1,716,1,-1,-0.6688975968103923,-1.0783236291057814,1,0.4309419264728351,0.001,0.524996817111969,1.0
717,1,717,-1,-1,-1.1867712717349244,-0.28649486706058613,1,0.4309419264728351,0.001,0.6189956068992615,0.0
718,1,718,-1,1,2.149095412103434,-0.28649486706058613,1,0.4309419264728351,0.001,1.8700313568115234,0.0
719,1,719,1,-1,0.23629817946431952,-1.0783236291057814,1,0.4309419264728351,0.001,0.1980002224445343,0.0
720,1,720,1,1,0.12799120614566195,-1.0783236291057814,1,0.4309419264728351,0.001,0.43199798464775085,0.0
721,1,721,-1,-1,-1.1164071553724262,-0.28649486706058613,1,0.4309419264728351,0.001,0.7959933280944824,1.0
722,1,722,1,-1,0.35371728685491244,-1.0783236291057814,1,0.4309419264728351,0.001,0.3239993751049042,0.0
723,1,723,-1,1,1.8455093056930605,-0.28649486706058613,1,0.4309419264728351,0.001,1.264003038406372,0.0
724,1,724,-1,-1,-2.1352580758932342,-0.28649486706058613,1,0.4309419264728351,0.001,0.2759999930858612,0.0
725,1,725,-1,-1,-0.8938250416544464,-0.28649486706058613,1,0.4309419264728351,0.001,0.7189943194389343,0.0
726,1,726,1,-1,-1.2816541844286782,-1.0783236291057814,1,0.4309419264728351,0.001,0.15400013327598572,0.0
727,1,727,-1,1,-0.5067802462397022,-0.28649486706058613,1,0.4309419264728351,0.001,1.2960045337677002,1.0
728,1,728,-1,1,1.9345249466621097,-0.28649486706058613,1,0.4309419264728351,0.001,0.6479952335357666,1.0
729,1,729,-1,1,0.005158965447203512,-0.28649486706058613,1,0.4309419264728351,0.001,1.9370344877243042,0.0
730,1,730,-1,1,-1.0238085575316425,-0.28649486706058613,1,0.4309419264728351,0.001,0.513996958732605,0.0
731,1,731,1,-1,-0.5593667604455127,-1.0783236291057814,1,0.4309419264728351,0.001,0.3849985897541046,0.0
732,1,732,-1,1,0.42499372640535205,-0.28649486706058613,1,0.4309419264728351,0.001,2.7779810428619385,1.0
733,1,733,1,1,1.0535424922510006,-1.0783236291057814,1,0.4309419264728351,0.001,0.18700020015239716,0.0
734,1,734,-1,1,0.5744650386009005,-0.28649486706058613,1,0.4309419264728351,0.001,0.3139995038509369,0.0
735,1,735,-1,-1,-2.378464841572155,-0.28649486706058613,1,0.4309419264728351,0.001,1.2100005149841309,1.0
736,1,736,-1,-1,0.4177197736325462,-0.28649486706058613,1,0.4309419264728351,0.001,0.5799961090087891,0.0
737,1,737,1,1,1.5054865150761607,-1.0783236291057814,1,0.4309419264728351,0.001,0.3349992334842682,0.0
738,1,738,-1,1,2.0135028224302984,-0.28649486706058613,1,0.4309419264728351,0.001,0.2470003217458725,0.0
739,1,739,1,1,-0.8615007999886555,-1.0783236291057814,1,0.4309419264728351,0.001,0.17200016975402832,0.0
740,1,740,1,-1,-3.2945736053806134,-1.0783236291057814,1,0.4309419264728351,0.001,0.2789999544620514,0.0
741,1,741,-1,1,1.3840699398703498,-0.28649486706058613,1,0.4309419264728351,0.001,1.0709940195083618,0.0
742,1,742,1,1,0.6396976283193676,-1.0783236291057814,1,0.4309419264728351,0.001,0.27699998021125793,0.0
743,1,743,1,-1,-0.58418847680478,-1.0783236291057814,1,0.4309419264728351,0.001,0.4439978301525116,0.0
744,1,744,1,-1,-2.0533396080440807,-1.0783236291057814,1,0.4309419264728351,0.001,1.6650217771530151,1.0
745,1,745,1,-1,-0.29403306508643007,-1.0783236291057814,1,0.4309419264728351,0.001,0.653995156288147,0.0
746,1,746,1,1,-1.1261020752267514,-1.0783236291057814,1,0.4309419264728351,0.001,0.24900032579898834,0.0
747,1,747,-1,-1,-0.19262851262743874,-0.28649486706058613,1,0.4309419264728351,0.001,0.44599780440330505,0.0
748,1,748,-1,1,1.09361559836293,-0.28649486706058613,1,0.4309419264728351,0.001,0.712994396686554,0.0
749,1,749,-1,-1,-2.7454319220200034,-0.28649486706058613,1,0.4309419264728351,0.001,1.512014627456665,0.0
750,1,750,-1,1,0.6667140322480032,-0.28649486706058613,1,0.4309419264728351,0.001,0.2759999930858612,0.0
751,1,751,-1,1,-0.47317496701772477,-0.28649486706058613,1,0.4309419264728351,0.001,2.813978433609009,0.0
752,1,752,-1,-1,1.3745246386676784,-0.28649486706058613,1,0.4309419264728351,0.001,0.49799713492393494,0.0
753,1,753,1,1,0.21390532847149563,-1.0783236291057814,1,0.4309419264728351,0.001,0.3559989631175995,0.0
754,1,754,1,-1,-1.1023137827178686,-1.0783236291057814,1,0.4309419264728351,0.001,0.5669962763786316,0.0
755,1,755,1,-1,-2.9746017677611025,-1.0783236291057814,1,0.4309419264728351,0.001,0.09900002181529999,0.0
756,1,756,-1,1,2.7066513536589087,-0.28649486706058613,1,0.4309419264728351,0.001,0.2899998128414154,0.0
757,1,757,1,1,1.6236709929305435,-1.0783236291057814,1,0.4309419264728351,0.001,0.8729923367500305,0.0
758,1,758,-1,1,0.08246192965356036,-0.28649486706058613,1,0.4309419264728351,0.001,1.0319921970367432,1.0
759,1,759,-1,1,2.4840627469418153,-0.28649486706058613,1,0.4309419264728351,0.001,3.13195538520813,1.0
760,1,760,1,1,0.19231022537080888,-1.0783236291057814,1,0.4309419264728351,0.001,0.49199721217155457,0.0
761,1,761,1,-1,-1.7099039747375748,-1.0783236291057814,1,0.4309419264728351,0.001,1.6590214967727661,0.0
762,1,762,1,-1,0.18942941919124345,-1.0783236291057814,1,0.4309419264728351,0.001,0.21800026297569275,0.0
763,1,763,-1,1,0.32646406946854134,-0.28649486706058613,1,0.4309419264728351,0.001,2.229020833969116,0.0
764,1,764,-1,1,0.7098046036417687,-0.28649486706058613,1,0.4309419264728351,0.001,0.33699920773506165,0.0
765,1,765,-1,-1,-0.30548750826427984,-0.28649486706058613,1,0.4309419264728351,0.001,0.6849947571754456,0.0
766,1,766,-1,-1,-1.595801547356582,-0.28649486706058613,1,0.4309419264728351,0.001,0.2200002670288086,0.0
767,1,767,1,-1,-1.0047000084564799,-1.0783236291057814,1,0.4309419264728351,0.001,2.0900309085845947,0.0
768,1,768,-1,-1,-0.7977366007760796,-0.28649486706058613,1,0.4309419264728351,0.001,0.6959946155548096,0.0
769,1,769,1,1,-1.0629429064957778,-1.0783236291057814,1,0.4309419264728351,0.001,0.3289993107318878,0.0
770,1,770,1,1,2.3030978607798085,-1.0783236291057814,1,0.4309419264728351,0.001,0.38999852538108826,0.0
771,1,771,-1,1,-0.32290638101694535,-0.28649486706058613,1,0.4309419264728351,0.001,0.7739936113357544,0.0
772,1,772,-1,-1,-1.7522565808191948,-0.28649486706058613,1,0.4309419264728351,0.001,0.5599963665008545,0.0
773,1,773,1,-1,1.074569194093725,-1.0783236291057814,1,0.4309419264728351,0.001,0.4029983580112457,0.0
774,1,774,-1,-1,-0.0009845212207929555,-0.28649486706058613,1,0.4309419264728351,0.001,0.638995349407196,1.0
775,1,775,-1,1,1.478059937500088,-0.28649486706058613,1,0.4309419264728351,0.001,0.7739936113357544,0.0
776,1,776,1,1,1.0247091996417552,-1.0783236291057814,1,0.4309419264728351,0.001,2.044034242630005,0.0
777,1,777,-1,1,0.7961424664269132,-0.28649486706058613,1,0.4309419264728351,0.001,0.719994306564331,1.0
778,1,778,1,1,2.170129683683615,-1.0783236291057814,1,0.4309419264728351,0.001,0.17200016975402832,0.0
779,1,779,1,1,0.6965250545861595,-1.0783236291057814,1,0.4309419264728351,0.001,0.4679975211620331,0.0
780,1,780,1,-1,-0.5681297050612781,-1.0783236291057814,1,0.4309419264728351,0.001,0.7339941263198853,0.0
781,1,781,-1,1,1.4138006626441755,-0.28649486706058613,1,0.4309419264728351,0.001,0.2959997355937958,1.0
782,1,782,-1,-1,0.6054519692088989,-0.28649486706058613,1,0.4309419264728351,0.001,2.5909945964813232,0.0
783,1,783,-1,1,1.7958341868902072,-0.28649486706058613,1,0.4309419264728351,0.001,0.8459926843643188,0.0
784,1,784,1,1,1.1898019184831454,-1.0783236291057814,1,0.4309419264728351,0.001,0.12500007450580597,0.0
785,1,785,-1,-1,-1.3614226446693984,-0.28649486706058613,1,0.4309419264728351,0.001,1.8280293941497803,0.0
786,1,786,-1,-1,-1.3498690449606037,-0.28649486706058613,1,0.4309419264728351,0.001,0.31599947810173035,0.0
787,1,787,-1,-1,0.5632446596883356,-0.28649486706058613,1,0.4309419264728351,0.001,0.6119956970214844,1.0
788,1,788,-1,-1,1.172096282363635,-0.28649486706058613,1,0.4309419264728351,0.001,0.4619975984096527,0.0
789,1,789,-1,1,-0.4217131928587512,-0.28649486706058613,1,0.4309419264728351,0.001,0.3139995038509369,1.0
790,1,790,1,1,0.23996910423156764,-1.0783236291057814,1,0.4309419264728351,0.001,0.3739987313747406,0.0
791,1,791,-1,1,0.8998446156169904,-0.28649486706058613,1,0.4309419264728351,0.001,0.42199811339378357,0.0
792,1,792,-1,-1,-0.20917501737132982,-0.28649486706058613,1,0.4309419264728351,0.001,3.2919437885284424,0.0
793,1,793,1,-1,-0.35477050205159333,-1.0783236291057814,1,0.4309419264728351,0.001,0.8059931993484497,0.0
794,1,794,-1,-1,-1.1152442701258334,-0.28649486706058613,1,0.4309419264728351,0.001,2.1850240230560303,0.0
795,1,795,-1,-1,-1.7147525449888832,-0.28649486706058613,1,0.4309419264728351,0.001,1.8680312633514404,1.0
796,1,796,-1,-1,-1.4004554035579806,-0.28649486706058613,1,0.4309419264728351,0.001,0.26300016045570374,0.0
797,1,797,1,-1,-0.24321048970382725,-1.0783236291057814,1,0.4309419264728351,0.001,0.38599857687950134,0.0
798,1,798,-1,-1,-0.878979701907948,-0.28649486706058613,1,0.4309419264728351,0.001,1.4890135526657104,1.0
799,1,799,-1,-1,2.2310393288620616,-0.28649486706058613,1,0.4309419264728351,0.001,1.3100051879882812,0.0
800,1,800,-1,1,2.0218136046996964,-0.28649486706058613,1,0.4309419264728351,0.001,2.23602032661438,0.0
801,1,801,1,1,0.5582419925864894,-1.0783236291057814,1,0.4309419264728351,0.001,0.493997186422348,0.0
802,1,802,-1,-1,-0.5309304058141503,-0.28649486706058613,1,0.4309419264728351,0.001,0.09200000762939453,0.0
803,1,803,1,1,1.2378355026574477,-1.0783236291057814,1,0.4309419264728351,0.001,0.3769986927509308,0.0
804,1,804,-1,1,-0.44529484796725827,-0.28649486706058613,1,0.4309419264728351,0.001,0.6269955039024353,0.0
805,1,805,1,-1,-1.2746902899637869,-1.0783236291057814,1,0.4309419264728351,0.001,0.8619924783706665,0.0
806,1,806,1,1,1.5107475769171954,-1.0783236291057814,1,0.4309419264728351,0.001,0.2939997613430023,0.0
807,1,807,-1,1,1.8602294815953655,-0.28649486706058613,1,0.4309419264728351,0.001,1.6820225715637207,1.0
808,1,808,-1,-1,-0.5313750949671107,-0.28649486706058613,1,0.4309419264728351,0.001,2.466003656387329,0.0
809,1,809,-1,-1,-1.7222925028592033,-0.28649486706058613,1,0.4309419264728351,0.001,0.5409966111183167,0.0
810,1,810,1,-1,-2.559196476000359,-1.0783236291057814,1,0.4309419264728351,0.001,0.7759935855865479,0.0
811,1,811,-1,1,0.08644041835191307,-0.28649486706058613,1,0.4309419264728351,0.001,0.734994113445282,0.0
812,1,812,-1,1,1.5551979530295177,-0.28649486706058613,1,0.4309419264728351,0.001,0.2690000832080841,0.0
813,1,813,1,1,1.2137680655191045,-1.0783236291057814,1,0.4309419264728351,0.001,0.22400027513504028,0.0
814,1,814,1,1,-0.6553042925366082,-1.0783236291057814,1,0.4309419264728351,0.001,0.3149994909763336,0.0
815,1,815,-1,1,1.4150944098870741,-0.28649486706058613,1,0.4309419264728351,0.001,3.1439545154571533,1.0
816,1,816,1,1,-0.4626351135576101,-1.0783236291057814,1,0.4309419264728351,0.001,1.0249918699264526,0.0
817,1,817,1,1,0.0005220037553211876,-1.0783236291057814,1,0.4309419264728351,0.001,0.8759922981262207,0.0
818,1,818,-1,1,2.8301860775055228,-0.28649486706058613,1,0.4309419264728351,0.001,0.22400027513504028,0.0
819,1,819,1,1,0.30399293924186954,-1.0783236291057814,1,0.4309419264728351,0.001,0.11000004410743713,0.0
820,1,820,-1,-1,-1.030305765635907,-0.28649486706058613,1,0.4309419264728351,0.001,2.192023515701294,1.0
821,1,821,-1,1,1.125077917462441,-0.28649486706058613,1,0.4309419264728351,0.001,1.0129913091659546,0.0
822,1,822,1,1,1.6230988395671628,-1.0783236291057814,1,0.4309419264728351,0.001,1.7810271978378296,0.0
823,1,823,1,-1,-1.1777182929169592,-1.0783236291057814,1,0.4309419264728351,0.001,0.25300028920173645,0.0
824,1,824,-1,1,0.9319585124964171,-0.28649486706058613,1,0.4309419264728351,0.001,0.6179956197738647,0.0
825,1,825,-1,-1,-0.8638219153387839,-0.28649486706058613,1,0.4309419264728351,0.001,0.2939997613430023,0.0
826,1,826,-1,1,0.8252520724496661,-0.28649486706058613,1,0.4309419264728351,0.001,0.5939959287643433,0.0
827,1,827,-1,1,-1.8073478479085643,-0.28649486706058613,1,0.4309419264728351,0.001,2.194023370742798,1.0
828,1,828,1,1,1.5872936460366596,-1.0783236291057814,1,0.4309419264728351,0.001,0.5009971261024475,0.0
829,1,829,-1,1,0.6018358556170974,-0.28649486706058613,1,0.4309419264728351,0.001,0.29199978709220886,0.0
830,1,830,-1,-1,1.4597354608473192,-0.28649486706058613,1,0.4309419264728351,0.001,3.723912477493286,1.0
831,1,831,-1,1,2.175371761397682,-0.28649486706058613,1,0.4309419264728351,0.001,0.664995014667511,1.0
832,1,832,-1,1,0.9963238160239266,-0.28649486706058613,1,0.4309419264728351,0.001,0.502997100353241,0.0
833,1,833,1,1,1.1677514681479368,-1.0783236291057814,1,0.4309419264728351,0.001,0.6209955811500549,1.0
834,1,834,1,-1,-1.910760070106661,-1.0783236291057814,1,0.4309419264728351,0.001,0.5589963793754578,0.0
835,1,835,1,1,-0.24546169366375614,-1.0783236291057814,1,0.4309419264728351,0.001,0.36199888586997986,0.0
836,1,836,-1,-1,-0.9339768235982697,-0.28649486706058613,1,0.4309419264728351,0.001,0.41399821639060974,0.0
837,1,837,-1,1,-0.5509126598620362,-0.28649486706058613,1,0.4309419264728351,0.001,0.7189943194389343,0.0
838,1,838,1,1,1.442480019143876,-1.0783236291057814,1,0.4309419264728351,0.001,0.22600027918815613,0.0
839,1,839,-1,-1,0.24697977501907753,-0.28649486706058613,1,0.4309419264728351,0.001,1.5770176649093628,0.0
840,1,840,1,1,1.069285549232239,-1.0783236291057814,1,0.4309419264728351,0.001,0.4409978687763214,0.0
841,1,841,1,-1,-1.4253912162854339,-1.0783236291057814,1,0.4309419264728351,0.001,0.8439927101135254,0.0
842,1,842,-1,1,0.6725131056078886,-0.28649486706058613,1,0.4309419264728351,0.001,7.242657661437988,0.0
843,1,843,1,1,-0.10147894660091872,-1.0783236291057814,1,0.4309419264728351,0.001,0.46699753403663635,1.0
844,1,844,1,1,-0.16127947747891225,-1.0783236291057814,1,0.4309419264728351,0.001,0.14600011706352234,0.0
845,1,845,1,1,-0.6491098623235079,-1.0783236291057814,1,0.4309419264728351,0.001,0.4059983193874359,0.0
846,1,846,-1,-1,-1.4611550331618268,-0.28649486706058613,1,0.4309419264728351,0.001,0.3709987699985504,1.0
847,1,847,1,-1,-0.15978555462608063,-1.0783236291057814,1,0.4309419264728351,0.001,2.31801438331604,0.0
848,1,848,-1,1,-2.101274050113942,-0.28649486706058613,1,0.4309419264728351,0.001,0.31299951672554016,0.0
849,1,849,1,1,2.3277043357111005,-1.0783236291057814,1,0.4309419264728351,0.001,0.5979958772659302,0.0
850,1,850,-1,1,1.7547820763885615,-0.28649486706058613,1,0.4309419264728351,0.001,0.8759922981262207,0.0
851,1,851,1,-1,-1.4390503336742366,-1.0783236291057814,1,0.4309419264728351,0.001,0.47099748253822327,0.0
852,1,852,1,-1,1.298851124760823,-1.0783236291057814,1,0.4309419264728351,0.001,0.3659988343715668,0.0
853,1,853,-1,1,1.8420283830831239,-0.28649486706058613,1,0.4309419264728351,0.001,1.5710173845291138,0.0
854,1,854,-1,-1,-1.3895431460717602,-0.28649486706058613,1,0.4309419264728351,0.001,3.2879440784454346,1.0
855,1,855,1,1,0.8719307781315405,-1.0783236291057814,1,0.4309419264728351,0.001,0.331999272108078,0.0
856,1,856,1,1,1.092695798965714,-1.0783236291057814,1,0.4309419264728351,0.001,0.16800016164779663,0.0
857,1,857,1,-1,-1.0745161307524556,-1.0783236291057814,1,0.4309419264728351,0.001,0.1440001130104065,0.0
858,1,858,-1,1,-0.8480093544829035,-0.28649486706058613,1,0.4309419264728351,0.001,0.320999413728714,0.0
859,1,859,1,-1,-1.6495812548342388,-1.0783236291057814,1,0.4309419264728351,0.001,1.1499977111816406,0.0
860,1,860,-1,1,1.1176857111413145,-0.28649486706058613,1,0.4309419264728351,0.001,0.6139956712722778,1.0
861,1,861,-1,-1,-1.1429773286715887,-0.28649486706058613,1,0.4309419264728351,0.001,0.6069957613945007,1.0
862,1,862,-1,1,-0.10661862101646158,-0.28649486706058613,1,0.4309419264728351,0.001,0.23200029134750366,1.0
863,1,863,-1,1,2.5495246819605297,-0.28649486706058613,1,0.4309419264728351,0.001,1.4040095806121826,1.0
864,1,864,1,-1,-1.217966105849832,-1.0783236291057814,1,0.4309419264728351,0.001,0.513996958732605,0.0
865,1,865,1,-1,0.15130983020175448,-1.0783236291057814,1,0.4309419264728351,0.001,0.23100028932094574,0.0
866,1,866,-1,1,0.6623874398061883,-0.28649486706058613,1,0.4309419264728351,0.001,5.83575963973999,0.0
867,1,867,-1,-1,-0.8619292659672877,-0.28649486706058613,1,0.4309419264728351,0.001,0.2590002119541168,0.0
868,1,868,1,-1,-0.7270325919637003,-1.0783236291057814,1,0.4309419264728351,0.001,0.502997100353241,0.0
869,1,869,-1,-1,0.7447888098476765,-0.28649486706058613,1,0.4309419264728351,0.001,1.1079957485198975,1.0
870,1,870,1,-1,-0.013915161815727939,-1.0783236291057814,1,0.4309419264728351,0.001,0.3449991047382355,0.0
871,1,871,-1,1,1.6080326958325721,-0.28649486706058613,1,0.4309419264728351,0.001,1.120996356010437,1.0
872,1,872,1,1,3.5778730251207436,-1.0783236291057814,1,0.4309419264728351,0.001,0.390998512506485,0.0
873,1,873,1,1,0.8416561941824148,-1.0783236291057814,1,0.4309419264728351,0.001,0.18100018799304962,0.0
874,1,874,-1,1,1.864650098892408,-0.28649486706058613,1,0.4309419264728351,0.001,2.105029821395874,0.0
875,1,875,1,-1,-0.6606527443966171,-1.0783236291057814,1,0.4309419264728351,0.001,0.5829960703849792,0.0
876,1,876,1,-1,-3.3103673237280904,-1.0783236291057814,1,0.4309419264728351,0.001,0.39299848675727844,0.0
877,1,877,-1,-1,-2.1036543756356743,-0.28649486706058613,1,0.4309419264728351,0.001,0.7949933409690857,0.0
878,1,878,-1,1,0.946016514252378,-0.28649486706058613,1,0.4309419264728351,0.001,0.4379979074001312,0.0
879,1,879,1,1,0.6389364549758396,-1.0783236291057814,1,0.4309419264728351,0.001,0.4259980618953705,0.0
880,1,880,1,1,1.1066648343975087,-1.0783236291057814,1,0.4309419264728351,0.001,1.1659984588623047,0.0
881,1,881,-1,1,-0.2279222250691334,-0.28649486706058613,1,0.4309419264728351,0.001,0.4999971091747284,1.0
882,1,882,1,-1,0.48142454316788075,-1.0783236291057814,1,0.4309419264728351,0.001,0.2869998514652252,0.0
883,1,883,1,1,0.7644498528458425,-1.0783236291057814,1,0.4309419264728351,0.001,0.2380003035068512,0.0
884,1,884,1,1,-0.19963348201950049,-1.0783236291057814,1,0.4309419264728351,0.001,0.8079931735992432,0.0
885,1,885,1,1,0.643753859264938,-1.0783236291057814,1,0.4309419264728351,0.001,1.752025842666626,0.0
886,1,886,1,1,1.5610710576652163,-1.0783236291057814,1,0.4309419264728351,0.001,0.3879985511302948,0.0
887,1,887,-1,1,0.6866865295238541,-0.28649486706058613,1,0.4309419264728351,0.001,0.23300029337406158,0.0
888,1,888,-1,-1,-0.6352479409946371,-0.28649486706058613,1,0.4309419264728351,0.001,1.764026403427124,0.0
889,1,889,1,-1,-1.3362901597104306,-1.0783236291057814,1,0.4309419264728351,0.001,0.12400007247924805,0.0
890,1,890,1,1,0.9181998047151321,-1.0783236291057814,1,0.4309419264728351,0.001,0.41399821639060974,0.0
891,1,891,1,-1,-1.2539222337521685,-1.0783236291057814,1,0.4309419264728351,0.001,1.0189915895462036,0.0
892,1,892,1,-1,-1.3576957894582171,-1.0783236291057814,1,0.4309419264728351,0.001,0.5109969973564148,1.0
893,1,893,-1,1,1.332652779378257,-0.28649486706058613,1,0.4309419264728351,0.001,0.30999955534935,0.0
894,1,894,-1,-1,-0.09775949207453127,-0.28649486706058613,1,0.4309419264728351,0.001,1.61501944065094,1.0
895,1,895,1,1,1.5763044264858213,-1.0783236291057814,1,0.4309419264728351,0.001,0.42499807476997375,0.0
896,1,896,1,-1,-2.1029814222729653,-1.0783236291057814,1,0.4309419264728351,0.001,0.7629937529563904,1.0
897,1,897,1,-1,-0.2379350805899491,-1.0783236291057814,1,0.4309419264728351,0.001,2.4750030040740967,1.0
898,1,898,1,-1,-0.9663189911441801,-1.0783236291057814,1,0.4309419264728351,0.001,1.730024814605713,0.0
899,1,899,1,1,0.6418731714598598,-1.0783236291057814,1,0.4309419264728351,0.001,0.4089982807636261,0.0
900,1,900,1,-1,-1.25190324687706,-1.0783236291057814,1,0.4309419264728351,0.001,0.37199875712394714,0.0
901,1,901,1,-1,-0.0955721640189422,-1.0783236291057814,1,0.4309419264728351,0.001,0.6179956197738647,0.0
902,1,902,-1,1,-0.034162316070888155,-0.28649486706058613,1,0.4309419264728351,0.001,0.5849960446357727,0.0
903,1,903,-1,-1,-1.4172987123888225,-0.28649486706058613,1,0.4309419264728351,0.001,0.8499926328659058,0.0
904,1,904,1,-1,-0.5724801115134821,-1.0783236291057814,1,0.4309419264728351,0.001,0.9629911780357361,1.0
905,1,905,-1,1,-0.036680021879340385,-0.28649486706058613,1,0.4309419264728351,0.001,0.5879960060119629,1.0
906,1,906,1,-1,1.7469247919018098,-1.0783236291057814,1,0.4309419264728351,0.001,0.7469939589500427,0.0
907,1,907,1,-1,0.9001448297675294,-1.0783236291057814,1,0.4309419264728351,0.001,0.27799996733665466,0.0
908,1,908,-1,-1,-0.5329946858265759,-0.28649486706058613,1,0.4309419264728351,0.001,0.5859960317611694,1.0
909,1,909,-1,1,-1.0663051606403657,-0.28649486706058613,1,0.4309419264728351,0.001,0.1750001758337021,0.0
910,1,910,-1,-1,-0.6117489605753458,-0.28649486706058613,1,0.4309419264728351,0.001,0.08900000154972076,0.0
911,1,911,-1,-1,-0.5466805167152529,-0.28649486706058613,1,0.4309419264728351,0.001,1.5880181789398193,0.0
912,1,912,-1,1,0.7286428452923155,-0.28649486706058613,1,0.4309419264728351,0.001,0.9719910621643066,1.0
913,1,913,-1,-1,0.046762335149451606,-0.28649486706058613,1,0.4309419264728351,0.001,2.274017572402954,1.0
914,1,914,-1,1,-0.5105965877372247,-0.28649486706058613,1,0.4309419264728351,0.001,0.6739948987960815,1.0
915,1,915,1,1,-0.24936446059171358,-1.0783236291057814,1,0.4309419264728351,0.001,0.42499807476997375,0.0
916,1,916,1,-1,0.3446819617546283,-1.0783236291057814,1,0.4309419264728351,0.001,0.2110002487897873,0.0
917,1,917,1,-1,0.5550363682474679,-1.0783236291057814,1,0.4309419264728351,0.001,0.27100005745887756,0.0
918,1,918,-1,1,0.7836890766695306,-0.28649486706058613,1,0.4309419264728351,0.001,0.5109969973564148,0.0
919,1,919,1,-1,-0.2086035829858775,-1.0783236291057814,1,0.4309419264728351,0.001,0.31899943947792053,0.0
920,1,920,1,-1,-0.9917119421665144,-1.0783236291057814,1,0.4309419264728351,0.001,2.470003366470337,0.0
921,1,921,1,1,-0.061666587764159564,-1.0783236291057814,1,0.4309419264728351,0.001,0.6149956583976746,0.0
922,1,922,1,-1,-0.42461115938837213,-1.0783236291057814,1,0.4309419264728351,0.001,0.8139930963516235,0.0
923,1,923,-1,-1,-0.19330379026361616,-0.28649486706058613,1,0.4309419264728351,0.001,0.401998370885849,0.0
924,1,924,-1,1,1.436838072047004,-0.28649486706058613,1,0.4309419264728351,0.001,0.7849934697151184,0.0
925,1,925,-1,1,2.5588981438926943,-0.28649486706058613,1,0.4309419264728351,0.001,0.5199968814849854,0.0
926,1,926,-1,-1,-1.939044668845992,-0.28649486706058613,1,0.4309419264728351,0.001,1.3980093002319336,0.0
927,1,927,-1,-1,0.30970217567311287,-0.28649486706058613,1,0.4309419264728351,0.001,1.0609935522079468,0.0
928,1,928,-1,-1,-0.02852660679063923,-0.28649486706058613,1,0.4309419264728351,0.001,2.215021848678589,1.0
929,1,929,1,-1,-1.7754741539445311,-1.0783236291057814,1,0.4309419264728351,0.001,0.6449952721595764,0.0
930,1,930,1,1,0.024151057855914315,-1.0783236291057814,1,0.4309419264728351,0.001,0.2070002406835556,0.0
931,1,931,1,-1,-1.387218354740844,-1.0783236291057814,1,0.4309419264728351,0.001,0.9909908175468445,0.0
932,1,932,1,1,0.49529638737170467,-1.0783236291057814,1,0.4309419264728351,0.001,1.2050002813339233,0.0
933,1,933,-1,-1,0.8772194680147751,-0.28649486706058613,1,0.4309419264728351,0.001,0.4789973795413971,0.0
934,1,934,-1,1,0.12311869526273755,-0.28649486706058613,1,0.4309419264728351,0.001,0.22700028121471405,0.0
935,1,935,-1,-1,0.19480044320308965,-0.28649486706058613,1,0.4309419264728351,0.001,0.2680000960826874,1.0
936,1,936,1,-1,-2.084187089470928,-1.0783236291057814,1,0.4309419264728351,0.001,0.19200021028518677,0.0
937,1,937,-1,1,0.8671723313326749,-0.28649486706058613,1,0.4309419264728351,0.001,0.91899174451828,0.0
938,1,938,1,1,0.8868870884621343,-1.0783236291057814,1,0.4309419264728351,0.001,0.5779961347579956,0.0
939,1,939,1,-1,-2.538462650666361,-1.0783236291057814,1,0.4309419264728351,0.001,0.4509977400302887,1.0
940,1,940,1,-1,0.21975308314000563,-1.0783236291057814,1,0.4309419264728351,0.001,0.08199998736381531,0.0
941,1,941,1,-1,-0.46320467191296555,-1.0783236291057814,1,0.4309419264728351,0.001,0.27100005745887756,0.0
942,1,942,1,1,-0.47892919250916277,-1.0783236291057814,1,0.4309419264728351,0.001,0.42199811339378357,0.0
943,1,943,-1,1,0.8230077242743179,-0.28649486706058613,1,0.4309419264728351,0.001,1.4710127115249634,1.0
944,1,944,1,1,-0.36871835515192153,-1.0783236291057814,1,0.4309419264728351,0.001,0.3069995939731598,0.0
945,1,945,1,-1,-0.8258327991859713,-1.0783236291057814,1,0.4309419264728351,0.001,0.9589912295341492,0.0
946,1,946,-1,-1,-1.9929822304456657,-0.28649486706058613,1,0.4309419264728351,0.001,0.26000019907951355,0.0
947,1,947,-1,1,0.9190132873529495,-0.28649486706058613,1,0.4309419264728351,0.001,0.49799713492393494,0.0
948,1,948,1,1,-0.08700211278085723,-1.0783236291057814,1,0.4309419264728351,0.001,0.30999955534935,0.0
949,1,949,1,-1,0.0461952894690798,-1.0783236291057814,1,0.4309419264728351,0.001,0.8759922981262207,0.0
950,1,950,-1,1,0.31523807092606826,-0.28649486706058613,1,0.4309419264728351,0.001,1.8490303754806519,0.0
951,1,951,-1,-1,-0.7059499202679265,-0.28649486706058613,1,0.4309419264728351,0.001,0.8979920148849487,0.0
