,subj_idx,trial_idx,S,X,M,v,a,z,t,rt,response
0,1,0,-1,-1,-0.37595361094558244,-1.492410232283025,1.1074596021926504,0.49536713038095126,0.9211115228714994,4.116062164306641,0.0
1,1,1,1,1,0.2579478958580226,1.683111608655014,1.1074596021926504,0.5286814560032536,0.9211115228714994,1.495107650756836,1.0
2,1,2,-1,1,0.04025574269223353,-1.492410232283025,1.1074596021926504,0.5172407712941193,0.9211115228714994,1.1361117362976074,0.0
3,1,3,1,1,0.538047782655362,1.683111608655014,1.1074596021926504,0.5434019429170472,0.9211115228714994,1.1521117687225342,1.0
4,1,4,-1,-1,0.3562273236949478,-1.492410232283025,1.1074596021926504,0.5338464742683817,0.9211115228714994,2.762141466140747,0.0
5,1,5,-1,1,-0.024854286574865547,-1.492410232283025,1.1074596021926504,0.5138189515113911,0.9211115228714994,1.7601042985916138,0.0
6,1,6,1,1,0.4406596603912194,1.683111608655014,1.1074596021926504,0.5382837666987702,0.9211115228714994,1.210111379623413,1.0
7,1,7,1,1,1.9087848506984348,1.683111608655014,1.1074596021926504,0.6154402336250308,0.9211115228714994,1.5031075477600098,1.0
8,1,8,-1,-1,0.9800117020393286,-1.492410232283025,1.1074596021926504,0.5666291000789061,0.9211115228714994,1.4331085681915283,0.0
9,1,9,-1,1,0.7274304100141851,-1.492410232283025,1.1074596021926504,0.5533548369350034,0.9211115228714994,1.8891026973724365,0.0
10,1,10,-1,-1,-2.9460318313695835,-1.492410232283025,1.1074596021926504,0.3602981617935027,0.9211115228714994,1.3401097059249878,0.0
11,1,11,1,1,1.238179159750867,1.683111608655014,1.1074596021926504,0.5801969409169131,0.9211115228714994,1.5071074962615967,1.0
12,1,12,-1,1,2.0706386170778726,-1.492410232283025,1.1074596021926504,0.623946364338538,0.9211115228714994,1.4361084699630737,0.0
13,1,13,1,1,1.5051986171561542,1.683111608655014,1.1074596021926504,0.5942299934590113,0.9211115228714994,1.1451117992401123,1.0
14,1,14,-1,1,1.104439061683838,-1.492410232283025,1.1074596021926504,0.5731683077176801,0.9211115228714994,1.0251115560531616,1.0
15,1,15,1,-1,-0.2895935933870263,1.683111608655014,1.1074596021926504,0.49990573095977087,0.9211115228714994,2.8141438961029053,1.0
16,1,16,-1,1,1.4535286183177891,-1.492410232283025,1.1074596021926504,0.5915145066716632,0.9211115228714994,1.2771104574203491,0.0
17,1,17,-1,-1,-2.099888023042562,-1.492410232283025,1.1074596021926504,0.40476675833626935,0.9211115228714994,1.4561082124710083,0.0
18,1,18,1,-1,-2.397157082274415,1.683111608655014,1.1074596021926504,0.3891439555342662,0.9211115228714994,1.774104118347168,1.0
19,1,19,-1,-1,-2.141227994559072,-1.492410232283025,1.1074596021926504,0.4025941601368074,0.9211115228714994,2.540131092071533,0.0
20,1,20,-1,1,0.9895397204086054,-1.492410232283025,1.1074596021926504,0.5671298395519669,0.9211115228714994,1.7901039123535156,0.0
21,1,21,-1,1,0.07566322205222953,-1.492410232283025,1.1074596021926504,0.5191015908129303,0.9211115228714994,1.6801053285598755,0.0
22,1,22,-1,-1,-1.5432243775237744,-1.492410232283025,1.1074596021926504,0.4340218930060412,0.9211115228714994,1.4881078004837036,0.0
23,1,23,-1,-1,0.3750383382805611,-1.492410232283025,1.1074596021926504,0.5348350762175251,0.9211115228714994,1.4291086196899414,0.0
24,1,24,1,-1,-2.531973799549546,1.683111608655014,1.1074596021926504,0.38205874123767813,0.9211115228714994,1.4541082382202148,1.0
25,1,25,-1,-1,-0.8949697721008575,-1.492410232283025,1.1074596021926504,0.4680905373923166,0.9211115228714994,2.6051342487335205,0.0
26,1,26,1,-1,1.2016968958558967,1.683111608655014,1.1074596021926504,0.5782796367209281,0.9211115228714994,1.8061037063598633,1.0
27,1,27,-1,1,1.0320666999204426,-1.492410232283025,1.1074596021926504,0.5693648202674005,0.9211115228714994,3.0091426372528076,0.0
28,1,28,1,-1,-2.7661001126049576,1.683111608655014,1.1074596021926504,0.3697543687978543,0.9211115228714994,1.3301098346710205,1.0
29,1,29,-1,-1,-2.3546078786405493,-1.492410232283025,1.1074596021926504,0.3913801042255287,0.9211115228714994,1.5811066627502441,0.0
30,1,30,1,-1,0.9047708868649822,1.683111608655014,1.1074596021926504,0.5626748627251491,0.9211115228714994,2.270118474960327,1.0
31,1,31,-1,-1,-2.0290313124160813,-1.492410232283025,1.1074596021926504,0.40849059162109413,0.9211115228714994,1.7431044578552246,0.0
32,1,32,-1,1,-0.3466364740304462,-1.492410232283025,1.1074596021926504,0.4969078754888613,0.9211115228714994,1.586106538772583,0.0
33,1,33,-1,1,1.182116131205828,-1.492410232283025,1.1074596021926504,0.5772505810040939,0.9211115228714994,1.1231117248535156,0.0
34,1,34,-1,-1,-0.5738807243641726,-1.492410232283025,1.1074596021926504,0.48496518585938353,0.9211115228714994,2.250117540359497,0.0
35,1,35,1,1,-0.1372981340383288,1.683111608655014,1.1074596021926504,0.5079095303972008,0.9211115228714994,1.3151099681854248,1.0
36,1,36,-1,1,4.029825955485503,-1.492410232283025,1.1074596021926504,0.7269103173285175,0.9211115228714994,2.8331449031829834,0.0
37,1,37,-1,-1,-2.374467780071533,-1.492410232283025,1.1074596021926504,0.3903363786372512,0.9211115228714994,1.0531115531921387,0.0
38,1,38,1,1,0.09270022015629353,1.683111608655014,1.1074596021926504,0.5199969603559486,0.9211115228714994,1.3091100454330444,1.0
39,1,39,-1,1,0.14801974921939653,-1.492410232283025,1.1074596021926504,0.5229042460851993,0.9211115228714994,1.6501057147979736,0.0
40,1,40,1,-1,-0.9534110154909272,1.683111608655014,1.1074596021926504,0.46501919177920037,0.9211115228714994,1.4081088304519653,1.0
41,1,41,-1,1,0.5595711455042971,-1.492410232283025,1.1074596021926504,0.5445330907542751,0.9211115228714994,2.25211763381958,0.0
42,1,42,-1,-1,-1.432586193182122,-1.492410232283025,1.1074596021926504,0.4398364185433027,0.9211115228714994,1.2561107873916626,0.0
43,1,43,-1,-1,-1.43905853807015,-1.492410232283025,1.1074596021926504,0.43949626821580645,0.9211115228714994,1.2131112813949585,0.0
44,1,44,-1,-1,0.4375451706805611,-1.492410232283025,1.1074596021926504,0.5381200865004199,0.9211115228714994,1.4991075992584229,0.0
45,1,45,1,1,0.4066402628311706,1.683111608655014,1.1074596021926504,0.5364958970129814,0.9211115228714994,1.1201117038726807,1.0
46,1,46,1,-1,-0.2251713384534212,1.683111608655014,1.1074596021926504,0.5032914051617507,0.9211115228714994,1.3921090364456177,1.0
47,1,47,1,1,-0.36965683219180145,1.683111608655014,1.1074596021926504,0.4956980539322026,0.9211115228714994,1.7031049728393555,1.0
48,1,48,-1,1,1.1029066292735958,-1.492410232283025,1.1074596021926504,0.5730877716221494,0.9211115228714994,1.6641055345535278,0.0
49,1,49,1,1,2.9100810602936464,1.683111608655014,1.1074596021926504,0.668062774528955,0.9211115228714994,1.5801066160202026,1.0
50,1,50,1,1,0.586026369432139,1.683111608655014,1.1074596021926504,0.5459234296868755,0.9211115228714994,1.2871103286743164,1.0
51,1,51,1,1,1.9558797350734454,1.683111608655014,1.1074596021926504,0.617915277928246,0.9211115228714994,1.37610924243927,1.0
52,1,52,1,1,1.4171194449455942,1.683111608655014,1.1074596021926504,0.5896010437056634,0.9211115228714994,1.4101088047027588,1.0
53,1,53,1,1,1.6624607930908715,1.683111608655014,1.1074596021926504,0.6024948158027514,0.9211115228714994,1.2271111011505127,1.0
54,1,54,-1,-1,-1.8641467019195035,-1.492410232283025,1.1074596021926504,0.41715600658735214,0.9211115228714994,1.258110761642456,0.0
55,1,55,-1,1,2.6928873529878876,-1.492410232283025,1.1074596021926504,0.6566482853525777,0.9211115228714994,1.8451032638549805,0.0
56,1,56,1,-1,-1.786508666711391,1.683111608655014,1.1074596021926504,0.4212362284480649,0.9211115228714994,1.8611030578613281,1.0
57,1,57,-1,-1,-1.3653077128929447,-1.492410232283025,1.1074596021926504,0.44337220001040956,0.9211115228714994,1.9011025428771973,0.0
58,1,58,-1,1,0.15741989975454662,-1.492410232283025,1.1074596021926504,0.5233982655384827,0.9211115228714994,2.8991479873657227,0.0
59,1,59,1,-1,-2.9515551755571794,1.683111608655014,1.1074596021926504,0.36000788564679115,0.9211115228714994,1.678105354309082,1.0
60,1,60,-1,-1,-2.388789077132232,-1.492410232283025,1.1074596021926504,0.38958373118572576,0.9211115228714994,1.2441109418869019,0.0
61,1,61,1,-1,-0.9539135254359852,1.683111608655014,1.1074596021926504,0.46499278266081456,0.9211115228714994,1.2781105041503906,1.0
62,1,62,-1,-1,-1.228156794344768,-1.492410232283025,1.1074596021926504,0.45058008689957485,0.9211115228714994,1.7841039896011353,0.0
63,1,63,1,1,1.6504123056762028,1.683111608655014,1.1074596021926504,0.6018616145424919,0.9211115228714994,1.3041101694107056,1.0
64,1,64,1,1,-0.14994893040037405,1.683111608655014,1.1074596021926504,0.5072446751399357,0.9211115228714994,1.5621068477630615,1.0
65,1,65,-1,-1,-1.1464884833145836,-1.492410232283025,1.1074596021926504,0.4548721175659824,0.9211115228714994,2.0731093883514404,0.0
66,1,66,1,1,0.0011564368260937874,1.683111608655014,1.1074596021926504,0.5151859299768953,0.9211115228714994,1.188111662864685,1.0
67,1,67,-1,1,0.14369742441418398,-1.492410232283025,1.1074596021926504,0.5226770888147704,0.9211115228714994,2.0291073322296143,1.0
68,1,68,-1,1,1.7067786624712542,-1.492410232283025,1.1074596021926504,0.6048239156953664,0.9211115228714994,1.18511164188385,0.0
69,1,69,1,1,1.7983597072503499,1.683111608655014,1.1074596021926504,0.6096369043282309,0.9211115228714994,1.6231060028076172,1.0
70,1,70,-1,1,1.3480115053844441,-1.492410232283025,1.1074596021926504,0.5859691160687729,0.9211115228714994,1.979104995727539,0.0
71,1,71,1,-1,-0.006806635535329009,1.683111608655014,1.1074596021926504,0.5147674353326088,0.9211115228714994,1.685105323791504,1.0
72,1,72,-1,-1,0.15094724335221987,-1.492410232283025,1.1074596021926504,0.5230580988395332,0.9211115228714994,1.2281111478805542,0.0
73,1,73,1,1,1.3831062472965032,1.683111608655014,1.1074596021926504,0.587813499852595,0.9211115228714994,1.1901116371154785,1.0
74,1,74,1,1,0.23672184678760566,1.683111608655014,1.1074596021926504,0.5275659333190238,0.9211115228714994,3.9450747966766357,1.0
75,1,75,1,1,-0.6717538054681613,1.683111608655014,1.1074596021926504,0.4798215229108642,0.9211115228714994,1.537107229232788,1.0
76,1,76,-1,1,-0.9142037383838626,-1.492410232283025,1.1074596021926504,0.4670797074622989,0.9211115228714994,1.1871116161346436,0.0
77,1,77,-1,1,0.6529979649819553,-1.492410232283025,1.1074596021926504,0.5494430830046944,0.9211115228714994,3.0501396656036377,0.0
78,1,78,1,1,-0.10170786425984679,1.683111608655014,1.1074596021926504,0.50977995636032,0.9211115228714994,1.8901026248931885,1.0
79,1,79,1,1,0.457094049586772,1.683111608655014,1.1074596021926504,0.5391474664804997,0.9211115228714994,2.0841097831726074,1.0
80,1,80,-1,1,1.5554040979937667,-1.492410232283025,1.1074596021926504,0.5968685133531858,0.9211115228714994,1.3081101179122925,0.0
81,1,81,1,-1,0.9347162985056621,1.683111608655014,1.1074596021926504,0.5642486264464595,0.9211115228714994,1.3431096076965332,0.0
82,1,82,-1,1,0.030663224629913,-1.492410232283025,1.1074596021926504,0.5167366420771414,0.9211115228714994,2.770141839981079,0.0
83,1,83,1,1,1.965458620679358,1.683111608655014,1.1074596021926504,0.6184186906993928,0.9211115228714994,1.7991037368774414,1.0
84,1,84,1,1,2.6240431805426208,1.683111608655014,1.1074596021926504,0.653030219843309,0.9211115228714994,1.2681106328964233,1.0
85,1,85,1,1,1.0637299206463262,1.683111608655014,1.1074596021926504,0.5710288624477573,0.9211115228714994,1.0871117115020752,1.0
86,1,86,-1,1,1.2007297093507667,-1.492410232283025,1.1074596021926504,0.5782288067957368,0.9211115228714994,1.9181022644042969,0.0
87,1,87,-1,1,1.5537238979851862,-1.492410232283025,1.1074596021926504,0.596780211417324,0.9211115228714994,1.3301098346710205,0.0
88,1,88,-1,-1,-1.1666739918756637,-1.492410232283025,1.1074596021926504,0.45381127988404274,0.9211115228714994,1.3181099891662598,0.0
89,1,89,-1,1,-1.7800209748140166,-1.492410232283025,1.1074596021926504,0.4215771853287263,0.9211115228714994,1.0771117210388184,0.0
90,1,90,-1,1,2.8559943993469314,-1.492410232283025,1.1074596021926504,0.6652202814677102,0.9211115228714994,1.98610520362854,0.0
91,1,91,1,1,1.2958417398898763,1.683111608655014,1.1074596021926504,0.5832273643349919,0.9211115228714994,1.4091087579727173,1.0
92,1,92,-1,-1,-1.61451079087408,-1.492410232283025,1.1074596021926504,0.43027547694406787,0.9211115228714994,1.5251073837280273,0.0
93,1,93,1,-1,-0.3998697158256037,1.683111608655014,1.1074596021926504,0.49411023337559834,0.9211115228714994,1.0791116952896118,1.0
94,1,94,1,1,1.8616625770279054,1.683111608655014,1.1074596021926504,0.6129637498932929,0.9211115228714994,2.1301119327545166,1.0
95,1,95,1,-1,-1.3846917205985994,1.683111608655014,1.1074596021926504,0.44235348474054437,0.9211115228714994,1.2511107921600342,1.0
96,1,96,1,-1,-0.9639624783526701,1.683111608655014,1.1074596021926504,0.4644646657750894,0.9211115228714994,1.2661106586456299,1.0
97,1,97,-1,1,0.8637579673103516,-1.492410232283025,1.1074596021926504,0.5605194525516447,0.9211115228714994,2.489128828048706,0.0
98,1,98,-1,1,1.2619162027488982,-1.492410232283025,1.1074596021926504,0.5814444274290282,0.9211115228714994,2.018106698989868,0.0
99,1,99,1,-1,0.06240973886168999,1.683111608655014,1.1074596021926504,0.518405061699337,0.9211115228714994,1.06611168384552,1.0
100,1,100,1,-1,-1.1854618047390026,1.683111608655014,1.1074596021926504,0.4528238972879416,0.9211115228714994,1.6841052770614624,1.0
101,1,101,-1,-1,-1.3611793579961655,-1.492410232283025,1.1074596021926504,0.4435891633049271,0.9211115228714994,1.800103783607483,0.0
102,1,102,1,1,0.8454791258110133,1.683111608655014,1.1074596021926504,0.5595588186500502,0.9211115228714994,1.1661118268966675,1.0
103,1,103,1,-1,-2.53108048437569,1.683111608655014,1.1074596021926504,0.3821056888979467,0.9211115228714994,1.7371046543121338,1.0
104,1,104,-1,1,2.198430294957999,-1.492410232283025,1.1074596021926504,0.6306623817687314,0.9211115228714994,2.0601086616516113,0.0
105,1,105,1,1,0.14977319083728313,1.683111608655014,1.1074596021926504,0.5229963971913112,0.9211115228714994,1.372109293937683,1.0
106,1,106,-1,-1,-0.5861339591328589,-1.492410232283025,1.1074596021926504,0.4843212242208178,0.9211115228714994,1.4261085987091064,0.0
107,1,107,1,-1,-2.025153384823515,1.683111608655014,1.1074596021926504,0.4086943938540465,0.9211115228714994,1.6151061058044434,1.0
108,1,108,-1,-1,-2.256749913108731,-1.492410232283025,1.1074596021926504,0.39652297278392934,0.9211115228714994,1.537107229232788,0.0
109,1,109,-1,-1,-0.601983675512448,-1.492410232283025,1.1074596021926504,0.4834882515794476,0.9211115228714994,1.193111538887024,0.0
110,1,110,-1,1,1.7291446341222692,-1.492410232283025,1.1074596021926504,0.6059993463489363,0.9211115228714994,1.2251111268997192,0.0
111,1,111,1,-1,-1.3695517153892813,1.683111608655014,1.1074596021926504,0.44314915892344675,0.9211115228714994,1.3861091136932373,1.0
112,1,112,1,1,2.3106031643199234,1.683111608655014,1.1074596021926504,0.6365575617861358,0.9211115228714994,1.3561094999313354,1.0
113,1,113,-1,-1,-1.621038826596756,-1.492410232283025,1.1074596021926504,0.42993239981709297,0.9211115228714994,1.0691115856170654,0.0
114,1,114,1,-1,-0.9641123132794458,1.683111608655014,1.1074596021926504,0.46445679128751266,0.9211115228714994,1.3851090669631958,1.0
115,1,115,1,-1,-0.1282689425754422,1.683111608655014,1.1074596021926504,0.5083840543118345,0.9211115228714994,1.5941064357757568,1.0
116,1,116,1,-1,-1.5931694638741405,1.683111608655014,1.1074596021926504,0.4313970579929488,0.9211115228714994,1.955103874206543,1.0
117,1,117,-1,-1,-1.5857616593298864,-1.492410232283025,1.1074596021926504,0.43178637085951393,0.9211115228714994,1.6021063327789307,0.0
118,1,118,-1,-1,-1.4135016876350757,-1.492410232283025,1.1074596021926504,0.4408393936511248,0.9211115228714994,1.1461118459701538,0.0
119,1,119,-1,-1,0.6810860410741895,-1.492410232283025,1.1074596021926504,0.5509192355346971,0.9211115228714994,1.3161100149154663,0.0
120,1,120,1,1,-1.171205310780321,1.683111608655014,1.1074596021926504,0.4535731390500677,0.9211115228714994,1.288110375404358,1.0
121,1,121,1,1,1.3580031065123306,1.683111608655014,1.1074596021926504,0.5864942188645385,0.9211115228714994,1.158111810684204,1.0
122,1,122,1,1,-0.18782893622012042,1.683111608655014,1.1074596021926504,0.5052539134286771,0.9211115228714994,1.4481083154678345,1.0
123,1,123,1,1,2.4282792577856966,1.683111608655014,1.1074596021926504,0.6427419605509329,0.9211115228714994,1.1421117782592773,1.0
124,1,124,1,-1,-0.9812190612261047,1.683111608655014,1.1074596021926504,0.46355775608201627,0.9211115228714994,1.5141074657440186,1.0
125,1,125,1,1,2.0500326030168,1.683111608655014,1.1074596021926504,0.622863427234208,0.9211115228714994,1.4091087579727173,1.0
126,1,126,1,1,1.0078298979458893,1.683111608655014,1.1074596021926504,0.5680910692124537,0.9211115228714994,1.2511107921600342,1.0
127,1,127,-1,1,1.6835829750391718,-1.492410232283025,1.1074596021926504,0.6036048798106877,0.9211115228714994,1.2161113023757935,0.0
128,1,128,-1,-1,-0.7192301497612961,-1.492410232283025,1.1074596021926504,0.47732643120314244,0.9211115228714994,1.233111023902893,0.0
129,1,129,1,-1,-0.809972880263514,1.683111608655014,1.1074596021926504,0.4725574996903415,0.9211115228714994,1.3661093711853027,1.0
130,1,130,1,-1,-0.9218389733537424,1.683111608655014,1.1074596021926504,0.4666784421217699,0.9211115228714994,1.8041037321090698,1.0
131,1,131,1,-1,-0.6982375373126881,1.683111608655014,1.1074596021926504,0.47842968576125533,0.9211115228714994,1.4081088304519653,1.0
132,1,132,-1,-1,-0.0490973990629594,-1.492410232283025,1.1074596021926504,0.5125448688110692,0.9211115228714994,1.3091100454330444,0.0
133,1,133,-1,-1,-1.5110335299935522,-1.492410232283025,1.1074596021926504,0.4357136643067394,0.9211115228714994,1.1471117734909058,0.0
134,1,134,-1,1,0.44761577787450924,-1.492410232283025,1.1074596021926504,0.5386493414141132,0.9211115228714994,3.2921221256256104,0.0
135,1,135,1,1,1.4386565397990494,1.683111608655014,1.1074596021926504,0.5907329132204154,0.9211115228714994,1.1951115131378174,1.0
136,1,136,-1,-1,-1.095320503984445,-1.492410232283025,1.1074596021926504,0.4575612210095677,0.9211115228714994,1.2961102724075317,0.0
137,1,137,-1,1,0.5600322917434597,-1.492410232283025,1.1074596021926504,0.5445573260271149,0.9211115228714994,1.333109736442566,0.0
138,1,138,1,-1,-1.5130865711038226,1.683111608655014,1.1074596021926504,0.43560576792326433,0.9211115228714994,1.4581081867218018,1.0
139,1,139,-1,1,0.939398579915004,-1.492410232283025,1.1074596021926504,0.5644947010272136,0.9211115228714994,2.0501081943511963,0.0
140,1,140,-1,-1,-2.207761456047731,-1.492410232283025,1.1074596021926504,0.399097532700175,0.9211115228714994,1.9361028671264648,0.0
141,1,141,-1,1,2.1891206618785426,-1.492410232283025,1.1074596021926504,0.630173119407774,0.9211115228714994,1.3421096801757812,0.0
142,1,142,-1,1,2.8590963686174256,-1.492410232283025,1.1074596021926504,0.6653833036615975,0.9211115228714994,1.3121100664138794,0.0
143,1,143,-1,1,0.8817927543608545,-1.492410232283025,1.1074596021926504,0.5614672603133881,0.9211115228714994,2.8451454639434814,0.0
144,1,144,1,-1,-1.9440629083388963,1.683111608655014,1.1074596021926504,0.41295605676142494,0.9211115228714994,1.8961025476455688,1.0
145,1,145,-1,-1,-2.215584612428646,-1.492410232283025,1.1074596021926504,0.39868639125900357,0.9211115228714994,1.2251111268997192,0.0
146,1,146,1,-1,-1.91790660364663,1.683111608655014,1.1074596021926504,0.4143306861671637,0.9211115228714994,1.8751027584075928,1.0
147,1,147,-1,1,1.2898683820611427,-1.492410232283025,1.1074596021926504,0.5829134379826656,0.9211115228714994,1.4861078262329102,0.0
148,1,148,1,1,0.6612832585303156,1.683111608655014,1.1074596021926504,0.5498785117963662,0.9211115228714994,1.5881065130233765,1.0
149,1,149,1,-1,-0.5269009198033319,1.683111608655014,1.1074596021926504,0.48743418220978485,0.9211115228714994,3.00014328956604,1.0
150,1,150,1,1,0.41543322366328406,1.683111608655014,1.1074596021926504,0.5369580059639795,0.9211115228714994,1.7971038818359375,1.0
151,1,151,1,1,0.6078529217779477,1.683111608655014,1.1074596021926504,0.547070511472068,0.9211115228714994,1.0481115579605103,1.0
152,1,152,1,-1,0.1774579489926038,1.683111608655014,1.1074596021926504,0.5244513535813214,0.9211115228714994,1.262110710144043,1.0
153,1,153,-1,1,1.4760436026104764,-1.492410232283025,1.1074596021926504,0.5926977685980936,0.9211115228714994,1.6111061573028564,0.0
154,1,154,-1,1,1.6946270384088669,-1.492410232283025,1.1074596021926504,0.6041852941484711,0.9211115228714994,1.5721067190170288,0.0
155,1,155,1,-1,-2.179657607472952,1.683111608655014,1.1074596021926504,0.4005745141438398,0.9211115228714994,2.520130157470703,1.0
156,1,156,-1,-1,-2.280628987999384,-1.492410232283025,1.1074596021926504,0.39526802186816656,0.9211115228714994,1.3381097316741943,0.0
157,1,157,-1,1,1.0176963091205768,-1.492410232283025,1.1074596021926504,0.5686095927229189,0.9211115228714994,2.6141345500946045,0.0
158,1,158,-1,1,0.8329118790450573,-1.492410232283025,1.1074596021926504,0.5588983542932955,0.9211115228714994,1.6681054830551147,0.0
159,1,159,-1,1,-0.15265310924428666,-1.492410232283025,1.1074596021926504,0.5071025585909448,0.9211115228714994,1.420108675956726,0.0
160,1,160,1,1,0.5530238623447568,1.683111608655014,1.1074596021926504,0.5441890020894317,0.9211115228714994,1.3131099939346313,1.0
161,1,161,-1,-1,-2.462835279274333,-1.492410232283025,1.1074596021926504,0.38569227602623984,0.9211115228714994,2.00610613822937,0.0
162,1,162,1,-1,-0.5989699161954272,1.683111608655014,1.1074596021926504,0.48364663795044827,0.9211115228714994,1.2661106586456299,1.0
163,1,163,-1,1,1.26954425781881,-1.492410232283025,1.1074596021926504,0.5818453154340834,0.9211115228714994,1.3231098651885986,0.0
164,1,164,-1,1,0.10973389895890628,-1.492410232283025,1.1074596021926504,0.5208921554550063,0.9211115228714994,1.3671092987060547,0.0
165,1,165,-1,-1,0.7110229148268981,-1.492410232283025,1.1074596021926504,0.5524925505522625,0.9211115228714994,1.1081117391586304,0.0
166,1,166,1,-1,-0.38186315910660884,1.683111608655014,1.1074596021926504,0.495056557508661,0.9211115228714994,1.0691115856170654,1.0
167,1,167,1,-1,-1.5169659256296022,1.683111608655014,1.1074596021926504,0.4354018906986654,0.9211115228714994,1.7441045045852661,1.0
168,1,168,1,-1,-1.847818347127223,1.683111608655014,1.1074596021926504,0.41801413379258534,0.9211115228714994,1.6401058435440063,1.0
169,1,169,-1,-1,-0.7300041950238026,-1.492410232283025,1.1074596021926504,0.47676020751019926,0.9211115228714994,1.2021114826202393,0.0
170,1,170,1,-1,-2.0713058481980045,1.683111608655014,1.1074596021926504,0.40626887793930755,0.9211115228714994,1.3341097831726074,1.0
171,1,171,-1,-1,-1.7862986824687612,-1.492410232283025,1.1074596021926504,0.4212472640480113,0.9211115228714994,1.094111680984497,0.0
172,1,172,1,1,1.9221678356337928,1.683111608655014,1.1074596021926504,0.6161435686276292,0.9211115228714994,1.2891103029251099,1.0
173,1,173,1,-1,0.2879350755296326,1.683111608655014,1.1074596021926504,0.5302574148191773,0.9211115228714994,2.5251305103302,1.0
174,1,174,1,-1,0.5527102908591763,1.683111608655014,1.1074596021926504,0.5441725225220787,0.9211115228714994,2.2871193885803223,1.0
175,1,175,-1,1,0.5553076210886965,-1.492410232283025,1.1074596021926504,0.5443090237041807,0.9211115228714994,1.53810715675354,0.0
176,1,176,-1,1,2.1902955996149007,-1.492410232283025,1.1074596021926504,0.630234867578294,0.9211115228714994,1.4261085987091064,0.0
177,1,177,1,1,0.8420117843629332,1.683111608655014,1.1074596021926504,0.559376594533519,0.9211115228714994,1.0791116952896118,1.0
178,1,178,1,1,1.4250478972965228,1.683111608655014,1.1074596021926504,0.5900177189154,0.9211115228714994,1.0621116161346436,1.0
179,1,179,-1,-1,-1.3351607200962996,-1.492410232283025,1.1074596021926504,0.4449565577123259,0.9211115228714994,1.4551081657409668,0.0
180,1,180,1,1,0.04429146774682968,1.683111608655014,1.1074596021926504,0.5174528664810653,0.9211115228714994,1.1081117391586304,1.0
181,1,181,1,-1,-0.9343076757409436,1.683111608655014,1.1074596021926504,0.46602315670762195,0.9211115228714994,1.4181087017059326,1.0
182,1,182,1,1,0.022743716593685015,1.683111608655014,1.1074596021926504,0.5163204369306705,0.9211115228714994,2.1361122131347656,1.0
183,1,183,1,-1,-1.2358992548850727,1.683111608655014,1.1074596021926504,0.45017318638145154,0.9211115228714994,1.1631118059158325,1.0
184,1,184,1,1,1.3403631612972382,1.683111608655014,1.1074596021926504,0.5855671617861945,0.9211115228714994,1.1491117477416992,1.0
185,1,185,1,1,3.0895879530126984,1.683111608655014,1.1074596021926504,0.677496655047152,0.9211115228714994,1.964104175567627,1.0
186,1,186,-1,-1,-0.2767174321548238,-1.492410232283025,1.1074596021926504,0.5005824301369315,0.9211115228714994,1.6861052513122559,0.0
187,1,187,1,1,-0.1489008654489523,1.683111608655014,1.1074596021926504,0.5072997555849106,0.9211115228714994,1.678105354309082,1.0
188,1,188,-1,1,-0.03602044624673306,-1.492410232283025,1.1074596021926504,0.5132321204733408,0.9211115228714994,1.1231117248535156,0.0
189,1,189,-1,-1,-1.811170917402037,-1.492410232283025,1.1074596021926504,0.41994011818287574,0.9211115228714994,1.1071116924285889,0.0
190,1,190,1,-1,-0.05325800136813541,1.683111608655014,1.1074596021926504,0.5123262107727274,0.9211115228714994,1.1761118173599243,1.0
191,1,191,-1,-1,-0.44606096815648777,-1.492410232283025,1.1074596021926504,0.49168267892977846,0.9211115228714994,1.1231117248535156,0.0
192,1,192,-1,1,2.3303194153355467,-1.492410232283025,1.1074596021926504,0.6375937379102431,0.9211115228714994,1.681105375289917,0.0
193,1,193,1,-1,-1.2884853337999986,1.683111608655014,1.1074596021926504,0.4474095555375913,0.9211115228714994,1.774104118347168,1.0
194,1,194,-1,-1,-2.868170521436681,-1.492410232283025,1.1074596021926504,0.3643901177277349,0.9211115228714994,1.72910475730896,0.0
195,1,195,-1,1,0.4936048823760102,-1.492410232283025,1.1074596021926504,0.5410662720981347,0.9211115228714994,2.0611088275909424,0.0
196,1,196,-1,1,0.33005042503400683,-1.492410232283025,1.1074596021926504,0.532470762558577,0.9211115228714994,1.91410231590271,0.0
197,1,197,1,1,1.1697913544136225,1.683111608655014,1.1074596021926504,0.5766028595160222,0.9211115228714994,1.1161117553710938,1.0
198,1,198,-1,1,0.9559092622272808,-1.492410232283025,1.1074596021926504,0.5653624103493937,0.9211115228714994,1.127111792564392,0.0
199,1,199,-1,-1,-2.1421981521590183,-1.492410232283025,1.1074596021926504,0.4025431740674533,0.9211115228714994,1.3931089639663696,0.0
200,1,200,-1,1,1.4014696252438417,-1.492410232283025,1.1074596021926504,0.588778576518129,0.9211115228714994,1.1391117572784424,0.0
201,1,201,1,-1,-0.35156076794158797,1.683111608655014,1.1074596021926504,0.49664908208159697,0.9211115228714994,1.3011101484298706,1.0
202,1,202,-1,-1,-1.4418414441244234,-1.492410232283025,1.1074596021926504,0.4393500142039871,0.9211115228714994,1.4381084442138672,0.0
203,1,203,-1,1,1.008984379222817,-1.492410232283025,1.1074596021926504,0.568151742305626,0.9211115228714994,1.2271111011505127,0.0
204,1,204,1,-1,-2.2662989194574426,1.683111608655014,1.1074596021926504,0.39602113029979563,0.9211115228714994,1.3211098909378052,1.0
205,1,205,-1,1,-0.4043191326122135,-1.492410232283025,1.1074596021926504,0.4938763968598817,0.9211115228714994,1.5911064147949219,0.0
206,1,206,-1,-1,1.00369109739394,-1.492410232283025,1.1074596021926504,0.5678735569525938,0.9211115228714994,1.6891052722930908,0.0
207,1,207,1,-1,-2.5540934053245077,1.683111608655014,1.1074596021926504,0.38089625819967465,0.9211115228714994,1.4801079034805298,1.0
208,1,208,-1,1,2.573851828315558,-1.492410232283025,1.1074596021926504,0.6503924424700583,0.9211115228714994,4.804012298583984,0.0
209,1,209,1,1,0.27293151665758797,1.683111608655014,1.1074596021926504,0.5294689114943043,0.9211115228714994,1.935102939605713,1.0
210,1,210,-1,-1,-2.784720301839704,-1.492410232283025,1.1074596021926504,0.36877579556422513,0.9211115228714994,1.2741105556488037,0.0
211,1,211,1,-1,-2.982559933923632,1.683111608655014,1.1074596021926504,0.3583784485734055,0.9211115228714994,1.5951063632965088,1.0
212,1,212,1,1,0.5796823735703274,1.683111608655014,1.1074596021926504,0.5455900246679276,0.9211115228714994,1.215111255645752,1.0
213,1,213,-1,1,-0.3266194877870181,-1.492410232283025,1.1074596021926504,0.4979598565782474,0.9211115228714994,1.3671092987060547,0.0
214,1,214,1,1,0.44092712568802717,1.683111608655014,1.1074596021926504,0.5382978231821431,0.9211115228714994,1.8371033668518066,1.0
215,1,215,1,1,0.7004026484700481,1.683111608655014,1.1074596021926504,0.5519344086204162,0.9211115228714994,1.6671054363250732,1.0
216,1,216,-1,1,1.0415846778309454,-1.492410232283025,1.1074596021926504,0.5698650320699805,0.9211115228714994,1.3151099681854248,0.0
217,1,217,1,-1,-0.3860858605382754,1.683111608655014,1.1074596021926504,0.4948346358867837,0.9211115228714994,1.5841065645217896,1.0
218,1,218,1,1,2.7987884286260916,1.683111608655014,1.1074596021926504,0.6622138548924782,0.9211115228714994,1.0751116275787354,1.0
219,1,219,1,-1,-1.2741459118159484,1.683111608655014,1.1074596021926504,0.4481631555339394,0.9211115228714994,1.7131049633026123,1.0
220,1,220,1,1,1.942713111516286,1.683111608655014,1.1074596021926504,0.6172233136722509,0.9211115228714994,2.237117052078247,1.0
221,1,221,-1,-1,-0.7985247968361456,-1.492410232283025,1.1074596021926504,0.47315914706766626,0.9211115228714994,2.284119129180908,0.0
222,1,222,-1,1,1.8017622633420407,-1.492410232283025,1.1074596021926504,0.6098157236879739,0.9211115228714994,1.1571118831634521,0.0
223,1,223,-1,-1,0.49843494900907315,-1.492410232283025,1.1074596021926504,0.5413201134455117,0.9211115228714994,1.8831026554107666,0.0
224,1,224,-1,1,2.2879812312930423,-1.492410232283025,1.1074596021926504,0.6353686792310783,0.9211115228714994,1.635105848312378,0.0
225,1,225,1,-1,1.2491004583336047,1.683111608655014,1.1074596021926504,0.5807709034226001,0.9211115228714994,2.1541130542755127,1.0
226,1,226,-1,1,2.869150084791078,-1.492410232283025,1.1074596021926504,0.6659116708775269,0.9211115228714994,1.8481031656265259,0.0
227,1,227,1,1,-1.0392496692666624,1.683111608655014,1.1074596021926504,0.4605079911712629,0.9211115228714994,1.631105899810791,1.0
228,1,228,-1,1,0.3939844786454567,-1.492410232283025,1.1074596021926504,0.5358307796235395,0.9211115228714994,1.1781117916107178,0.0
229,1,229,-1,1,0.8954090705027933,-1.492410232283025,1.1074596021926504,0.5621828579020673,0.9211115228714994,2.6501362323760986,0.0
230,1,230,-1,1,0.5474782047015023,-1.492410232283025,1.1074596021926504,0.543897553272014,0.9211115228714994,1.8531031608581543,0.0
231,1,231,1,1,1.9780494058580778,1.683111608655014,1.1074596021926504,0.619080392103763,0.9211115228714994,1.0681116580963135,1.0
232,1,232,-1,-1,-0.5621443958362929,-1.492410232283025,1.1074596021926504,0.48558198179059947,0.9211115228714994,2.3221209049224854,0.0
233,1,233,1,-1,-1.0017896208206283,1.683111608655014,1.1074596021926504,0.46247668226658956,0.9211115228714994,1.2521108388900757,1.0
234,1,234,1,1,-0.11482050741109684,1.683111608655014,1.1074596021926504,0.5090908290132145,0.9211115228714994,1.3371096849441528,1.0
235,1,235,1,1,-0.9407575634479264,1.683111608655014,1.1074596021926504,0.46568418660423605,0.9211115228714994,1.6511056423187256,1.0
236,1,236,-1,1,1.4613481999678604,-1.492410232283025,1.1074596021926504,0.5919254602449308,0.9211115228714994,3.1851298809051514,0.0
237,1,237,1,1,-0.6878130553151784,1.683111608655014,1.1074596021926504,0.4789775383597765,0.9211115228714994,1.1941115856170654,1.0
238,1,238,-1,1,1.5900917195515016,-1.492410232283025,1.1074596021926504,0.5986915011631763,0.9211115228714994,1.5401071310043335,0.0
239,1,239,1,1,1.6744346614156977,1.683111608655014,1.1074596021926504,0.6031240955000711,0.9211115228714994,1.7881039381027222,0.0
240,1,240,-1,-1,-3.1015869261625255,-1.492410232283025,1.1074596021926504,0.3521230541079712,0.9211115228714994,1.468108057975769,0.0
241,1,241,-1,1,1.2240254174674907,-1.492410232283025,1.1074596021926504,0.5794530992094211,0.9211115228714994,1.0491116046905518,0.0
242,1,242,1,1,0.810435538305932,1.683111608655014,1.1074596021926504,0.5577171232563845,0.9211115228714994,1.4131087064743042,1.0
243,1,243,-1,-1,-1.7172021582053567,-1.492410232283025,1.1074596021926504,0.424878591760557,0.9211115228714994,2.3801236152648926,0.0
244,1,244,1,1,3.1499725282418423,1.683111608655014,1.1074596021926504,0.680670131336697,0.9211115228714994,1.0861116647720337,1.0
245,1,245,-1,1,1.548849878926541,-1.492410232283025,1.1074596021926504,0.5965240601757411,0.9211115228714994,1.8201035261154175,0.0
246,1,246,1,1,0.4302899106278997,1.683111608655014,1.1074596021926504,0.5377387905210371,0.9211115228714994,1.3041101694107056,1.0
247,1,247,-1,-1,0.5790096798715814,-1.492410232283025,1.1074596021926504,0.545554671641182,0.9211115228714994,2.1041107177734375,0.0
248,1,248,1,1,-0.03353758348349056,1.683111608655014,1.1074596021926504,0.5133626058842167,0.9211115228714994,1.8361033201217651,1.0
249,1,249,1,1,2.3464651545549238,1.683111608655014,1.1074596021926504,0.6384422678600761,0.9211115228714994,1.4041088819503784,1.0
250,1,250,-1,1,1.1203584439554763,-1.492410232283025,1.1074596021926504,0.5740049416095563,0.9211115228714994,1.8371033668518066,0.0
251,1,251,-1,1,1.8269484553844095,-1.492410232283025,1.1074596021926504,0.6111393693866822,0.9211115228714994,1.134111762046814,0.0
252,1,252,1,-1,-2.097715416090822,1.683111608655014,1.1074596021926504,0.40488093843311834,0.9211115228714994,1.3841091394424438,1.0
253,1,253,1,-1,-0.26858797604142626,1.683111608655014,1.1074596021926504,0.5010096689826941,0.9211115228714994,1.453108310699463,1.0
254,1,254,1,-1,-1.616085506998298,1.683111608655014,1.1074596021926504,0.43019271865250075,0.9211115228714994,1.6151061058044434,1.0
255,1,255,-1,1,1.7469676596799055,-1.492410232283025,1.1074596021926504,0.6069360251083791,0.9211115228714994,1.5951063632965088,0.0
256,1,256,1,1,1.4512353143897252,1.683111608655014,1.1074596021926504,0.5913939834153048,0.9211115228714994,1.1821117401123047,1.0
257,1,257,1,-1,-1.0644637382387048,1.683111608655014,1.1074596021926504,0.459182880416702,0.9211115228714994,1.5631067752838135,1.0
258,1,258,1,-1,-1.550590755145587,1.683111608655014,1.1074596021926504,0.4336347573073309,0.9211115228714994,1.945103406906128,1.0
259,1,259,1,-1,-1.0352929264839574,1.683111608655014,1.1074596021926504,0.4607159354907699,0.9211115228714994,1.7181048393249512,1.0
260,1,260,1,-1,0.12068368325806733,1.683111608655014,1.1074596021926504,0.5214676150109799,0.9211115228714994,3.7150914669036865,1.0
261,1,261,1,1,0.30176753739043083,1.683111608655014,1.1074596021926504,0.5309843718206086,0.9211115228714994,1.4301085472106934,1.0
262,1,262,1,1,1.941255228354267,1.683111608655014,1.1074596021926504,0.6171466954691744,0.9211115228714994,1.468108057975769,1.0
263,1,263,1,1,-0.6752142169684165,1.683111608655014,1.1074596021926504,0.4796396629937172,0.9211115228714994,1.6241060495376587,1.0
264,1,264,-1,-1,-1.757736716623391,-1.492410232283025,1.1074596021926504,0.4227483215788314,0.9211115228714994,1.2521108388900757,0.0
265,1,265,-1,-1,-0.9669426864295358,-1.492410232283025,1.1074596021926504,0.46430804267003395,0.9211115228714994,1.446108341217041,0.0
266,1,266,-1,1,0.6056571740510951,-1.492410232283025,1.1074596021926504,0.5469551152252193,0.9211115228714994,2.0811097621917725,0.0
267,1,267,1,1,1.6876298875860478,1.683111608655014,1.1074596021926504,0.6038175629497946,0.9211115228714994,1.7931039333343506,1.0
268,1,268,-1,1,1.258816655685854,-1.492410232283025,1.1074596021926504,0.5812815325328471,0.9211115228714994,1.974104642868042,0.0
269,1,269,1,-1,-0.9637047447169033,1.683111608655014,1.1074596021926504,0.464478210816667,0.9211115228714994,1.2081114053726196,1.0
270,1,270,1,-1,-3.2152524306823365,1.683111608655014,1.1074596021926504,0.3461494295165259,0.9211115228714994,1.583106517791748,1.0
271,1,271,1,1,1.0934499539645746,1.683111608655014,1.1074596021926504,0.5725907815421957,0.9211115228714994,1.1811116933822632,1.0
272,1,272,1,1,2.219689449247439,1.683111608655014,1.1074596021926504,0.6317796442785247,0.9211115228714994,1.1361117362976074,1.0
273,1,273,-1,-1,-1.2945511241779897,-1.492410232283025,1.1074596021926504,0.4470907714463087,0.9211115228714994,2.3591227531433105,0.0
274,1,274,1,-1,-1.0510263914460192,1.683111608655014,1.1074596021926504,0.4598890723751477,0.9211115228714994,1.3011101484298706,1.0
275,1,275,1,-1,-1.112461629564618,1.683111608655014,1.1074596021926504,0.45666037910750296,0.9211115228714994,2.1611135005950928,1.0
276,1,276,-1,-1,-1.4558274148511312,-1.492410232283025,1.1074596021926504,0.4386149896332412,0.9211115228714994,1.72910475730896,0.0
277,1,277,-1,-1,0.13687071131644002,-1.492410232283025,1.1074596021926504,0.5223183148717725,0.9211115228714994,1.5271072387695312,0.0
278,1,278,1,1,1.7771092551512055,1.683111608655014,1.1074596021926504,0.6085200991569957,0.9211115228714994,1.5621068477630615,1.0
279,1,279,1,1,1.6069384700128655,1.683111608655014,1.1074596021926504,0.5995768723517976,0.9211115228714994,1.6031062602996826,1.0
280,1,280,1,1,0.796353046225903,1.683111608655014,1.1074596021926504,0.5569770260619588,0.9211115228714994,1.4221086502075195,1.0
281,1,281,1,1,1.1764885605144524,1.683111608655014,1.1074596021926504,0.576954827293994,0.9211115228714994,2.193114995956421,1.0
282,1,282,1,-1,0.09601250197196376,1.683111608655014,1.1074596021926504,0.5201710354035319,0.9211115228714994,1.950103521347046,1.0
283,1,283,1,1,0.8013217287113421,1.683111608655014,1.1074596021926504,0.5572381522849715,0.9211115228714994,1.2741105556488037,1.0
284,1,284,1,-1,0.0529963974004406,1.683111608655014,1.1074596021926504,0.5179103490045915,0.9211115228714994,1.5231072902679443,0.0
285,1,285,-1,1,0.9522699832612238,-1.492410232283025,1.1074596021926504,0.5651711501564389,0.9211115228714994,1.5561069250106812,0.0
286,1,286,-1,1,2.167132960226992,-1.492410232283025,1.1074596021926504,0.6290175685143878,0.9211115228714994,2.0821096897125244,0.0
287,1,287,-1,1,2.524599048675194,-1.492410232283025,1.1074596021926504,0.64780399123413,0.9211115228714994,1.6321059465408325,0.0
288,1,288,-1,-1,-1.6188183964473124,-1.492410232283025,1.1074596021926504,0.4300490932343292,0.9211115228714994,1.3391096591949463,0.0
289,1,289,1,-1,-0.16946073802940587,1.683111608655014,1.1074596021926504,0.5062192434193029,0.9211115228714994,1.2351109981536865,0.0
290,1,290,1,1,1.1572998959924128,1.683111608655014,1.1074596021926504,0.5759463781717199,0.9211115228714994,1.6711053848266602,1.0
291,1,291,1,1,1.4984439347203102,1.683111608655014,1.1074596021926504,0.5938750050456257,0.9211115228714994,1.2391109466552734,1.0
292,1,292,1,-1,-2.0467841274548357,1.683111608655014,1.1074596021926504,0.4075576027347042,0.9211115228714994,1.4921077489852905,1.0
293,1,293,-1,1,1.1514814140979825,-1.492410232283025,1.1074596021926504,0.5756405912341941,0.9211115228714994,2.00610613822937,0.0
294,1,294,-1,1,0.24133865073650485,-1.492410232283025,1.1074596021926504,0.5278085667698631,0.9211115228714994,1.1951115131378174,0.0
295,1,295,1,-1,-2.3335085515432965,1.683111608655014,1.1074596021926504,0.3924889671100385,0.9211115228714994,1.1421117782592773,1.0
296,1,296,1,1,0.42658408284343086,1.683111608655014,1.1074596021926504,0.5375440328935714,0.9211115228714994,2.184114456176758,1.0
297,1,297,1,1,1.3498233453530242,1.683111608655014,1.1074596021926504,0.5860643362662972,0.9211115228714994,1.2131112813949585,1.0
298,1,298,-1,-1,-1.2451146466287921,-1.492410232283025,1.1074596021926504,0.44968887681917363,0.9211115228714994,1.9201022386550903,0.0
299,1,299,-1,1,2.654795598571649,-1.492410232283025,1.1074596021926504,0.6546463953167798,0.9211115228714994,1.6991050243377686,0.0
300,1,300,-1,1,3.0050445771946763,-1.492410232283025,1.1074596021926504,0.6730535270201935,0.9211115228714994,1.545107126235962,0.0
301,1,301,-1,-1,-0.0813312804823294,-1.492410232283025,1.1074596021926504,0.5108508358893139,0.9211115228714994,1.5301072597503662,0.0
302,1,302,-1,-1,-1.8327590271953724,-1.492410232283025,1.1074596021926504,0.4188055676075795,0.9211115228714994,3.7190911769866943,0.0
303,1,303,-1,1,0.5739185306758133,-1.492410232283025,1.1074596021926504,0.5452871092513167,0.9211115228714994,1.959104061126709,0.0
304,1,304,1,-1,-0.5273881409190109,1.683111608655014,1.1074596021926504,0.48740857658694975,0.9211115228714994,1.9031023979187012,1.0
305,1,305,-1,1,-0.5118940945416832,-1.492410232283025,1.1074596021926504,0.4882228571978669,0.9211115228714994,1.1861116886138916,0.0
306,1,306,1,1,1.8902783546769553,1.683111608655014,1.1074596021926504,0.6144676354722102,0.9211115228714994,1.263110637664795,1.0
307,1,307,1,1,1.1945218528082249,1.683111608655014,1.1074596021926504,0.5779025564996655,0.9211115228714994,2.9511468410491943,1.0
308,1,308,1,1,-0.6226696162939664,1.683111608655014,1.1074596021926504,0.4824011139727331,0.9211115228714994,1.3461096286773682,1.0
309,1,309,1,1,3.0937270525523437,1.683111608655014,1.1074596021926504,0.6777141830201365,0.9211115228714994,1.1721118688583374,1.0
310,1,310,1,1,0.5983081097732523,1.683111608655014,1.1074596021926504,0.5465688894192486,0.9211115228714994,1.2211111783981323,1.0
311,1,311,1,-1,-0.6298992033683312,1.683111608655014,1.1074596021926504,0.4820211672218181,0.9211115228714994,1.2191112041473389,1.0
312,1,312,-1,-1,-3.213228711145731,-1.492410232283025,1.1074596021926504,0.34625578492172226,0.9211115228714994,1.1631118059158325,0.0
313,1,313,-1,-1,-1.048483618065035,-1.492410232283025,1.1074596021926504,0.46002270635375264,0.9211115228714994,1.6911051273345947,0.0
314,1,314,1,-1,-3.0385860127193927,1.683111608655014,1.1074596021926504,0.3554340305332051,0.9211115228714994,1.8711028099060059,1.0
315,1,315,1,-1,-1.5563276141319893,1.683111608655014,1.1074596021926504,0.433333260014343,0.9211115228714994,1.2051113843917847,1.0
316,1,316,-1,1,1.633693055541659,-1.492410232283025,1.1074596021926504,0.6009829440595149,0.9211115228714994,1.4121087789535522,0.0
317,1,317,-1,-1,-1.2587613526800907,-1.492410232283025,1.1074596021926504,0.4489716821064536,0.9211115228714994,1.395108938217163,0.0
318,1,318,1,-1,-1.216389119608581,1.683111608655014,1.1074596021926504,0.4511985302125675,0.9211115228714994,2.1391124725341797,1.0
319,1,319,-1,1,-0.12127376441594873,-1.492410232283025,1.1074596021926504,0.5087516818383354,0.9211115228714994,1.3401097059249878,0.0
320,1,320,1,1,0.5320152730228138,1.683111608655014,1.1074596021926504,0.5430849078760174,0.9211115228714994,1.373109221458435,1.0
321,1,321,1,1,0.4529526534296251,1.683111608655014,1.1074596021926504,0.5389298178101158,0.9211115228714994,1.2681106328964233,0.0
322,1,322,1,-1,-1.5463487470454116,1.683111608655014,1.1074596021926504,0.43385769357996146,0.9211115228714994,1.5291073322296143,1.0
323,1,323,1,1,1.6619113977158106,1.683111608655014,1.1074596021926504,0.6024659426478154,0.9211115228714994,1.8021037578582764,1.0
324,1,324,1,1,0.7600036850897505,1.683111608655014,1.1074596021926504,0.5550667064932949,0.9211115228714994,1.192111611366272,1.0
325,1,325,1,-1,-1.448387260785549,1.683111608655014,1.1074596021926504,0.4390060026101163,0.9211115228714994,1.1511118412017822,1.0
326,1,326,-1,-1,-1.8370159925424714,-1.492410232283025,1.1074596021926504,0.4185818452655216,0.9211115228714994,3.16913104057312,0.0
327,1,327,1,-1,-1.5880852159819323,1.683111608655014,1.1074596021926504,0.43166425768881267,0.9211115228714994,2.0671091079711914,1.0
328,1,328,-1,-1,-0.5229871478492721,-1.492410232283025,1.1074596021926504,0.4876398682223429,0.9211115228714994,1.1231117248535156,0.0
329,1,329,1,-1,-1.6827027425494898,1.683111608655014,1.1074596021926504,0.4266916885186544,0.9211115228714994,1.8481031656265259,1.0
330,1,330,1,-1,-0.49149422609733207,1.683111608655014,1.1074596021926504,0.4892949604390062,0.9211115228714994,1.3611093759536743,1.0
331,1,331,-1,-1,-1.9772906124666372,-1.492410232283025,1.1074596021926504,0.4112097940642832,0.9211115228714994,1.5991063117980957,0.0
332,1,332,1,-1,-1.0432765805818789,1.683111608655014,1.1074596021926504,0.46029635918527234,0.9211115228714994,1.258110761642456,1.0
333,1,333,1,1,2.470630179476879,1.683111608655014,1.1074596021926504,0.6449676886498279,0.9211115228714994,1.2291110754013062,1.0
334,1,334,-1,1,0.6235250669369811,-1.492410232283025,1.1074596021926504,0.5478941519610466,0.9211115228714994,1.3411096334457397,0.0
335,1,335,-1,-1,-1.9790700528192806,-1.492410232283025,1.1074596021926504,0.411116276609762,0.9211115228714994,1.2891103029251099,0.0
336,1,336,1,-1,-0.7819353632736634,1.683111608655014,1.1074596021926504,0.47403099511607505,0.9211115228714994,1.1551117897033691,1.0
337,1,337,1,-1,-0.14166943717854574,1.683111608655014,1.1074596021926504,0.5076797990988144,0.9211115228714994,1.3811091184616089,1.0
338,1,338,1,1,1.1471603807332382,1.683111608655014,1.1074596021926504,0.5754135018346692,0.9211115228714994,1.2821104526519775,1.0
339,1,339,1,-1,-2.1320786103719938,1.683111608655014,1.1074596021926504,0.4030750007102726,0.9211115228714994,3.6950929164886475,1.0
340,1,340,1,1,3.5065716961477396,1.683111608655014,1.1074596021926504,0.699410993550706,0.9211115228714994,1.0551116466522217,1.0
341,1,341,1,1,-0.903842074288236,1.683111608655014,1.1074596021926504,0.4676242587024611,0.9211115228714994,1.8261034488677979,1.0
342,1,342,-1,1,-0.979533682547264,-1.492410232283025,1.1074596021926504,0.46364633017988666,0.9211115228714994,1.4991075992584229,0.0
343,1,343,-1,-1,-1.6130007782846314,-1.492410232283025,1.1074596021926504,0.43035483477893455,0.9211115228714994,1.4601081609725952,1.0
344,1,344,1,-1,-0.5410582899649061,1.683111608655014,1.1074596021926504,0.48669014984126063,0.9211115228714994,1.4441083669662476,1.0
345,1,345,-1,-1,-1.1030024901056272,-1.492410232283025,1.1074596021926504,0.45715749868942757,0.9211115228714994,1.957103967666626,0.0
346,1,346,-1,-1,0.08561504365784378,-1.492410232283025,1.1074596021926504,0.5196246030190004,0.9211115228714994,1.3881090879440308,0.0
347,1,347,1,-1,0.6757429525168828,1.683111608655014,1.1074596021926504,0.550638432617972,0.9211115228714994,1.2861104011535645,1.0
348,1,348,-1,-1,0.6692150337628546,-1.492410232283025,1.1074596021926504,0.5502953616382165,0.9211115228714994,2.0361075401306152,0.0
349,1,349,1,1,-0.27541289472290553,1.683111608655014,1.1074596021926504,0.500650989344201,0.9211115228714994,1.5321072340011597,1.0
350,1,350,-1,-1,-1.8573447987025902,-1.492410232283025,1.1074596021926504,0.41751347666146865,0.9211115228714994,1.612106204032898,0.0
351,1,351,1,-1,0.12457828139090799,1.683111608655014,1.1074596021926504,0.5216722933544969,0.9211115228714994,1.4301085472106934,1.0
352,1,352,-1,1,0.2006137551282008,-1.492410232283025,1.1074596021926504,0.52566829352762,0.9211115228714994,1.494107723236084,0.0
353,1,353,-1,-1,-1.0190537470490282,-1.492410232283025,1.1074596021926504,0.4615693761368762,0.9211115228714994,1.2431108951568604,0.0
354,1,354,1,1,0.8787486395397996,1.683111608655014,1.1074596021926504,0.5613072786264985,0.9211115228714994,1.3631093502044678,1.0
355,1,355,-1,1,0.8884957277834609,-1.492410232283025,1.1074596021926504,0.5618195311896073,0.9211115228714994,1.3361097574234009,0.0
356,1,356,-1,1,-0.2181746098409627,-1.492410232283025,1.1074596021926504,0.5036591141714069,0.9211115228714994,1.2201112508773804,0.0
357,1,357,1,-1,-2.168714128500711,1.683111608655014,1.1074596021926504,0.4011496423270183,0.9211115228714994,1.4581081867218018,1.0
358,1,358,-1,-1,-0.6986797814511005,-1.492410232283025,1.1074596021926504,0.47840644387734516,0.9211115228714994,1.4081088304519653,0.0
359,1,359,1,1,1.6531684257371264,1.683111608655014,1.1074596021926504,0.6020064608319837,0.9211115228714994,1.0441116094589233,1.0
360,1,360,1,1,0.31375232205580383,1.683111608655014,1.1074596021926504,0.5316142252198672,0.9211115228714994,1.497107744216919,1.0
361,1,361,-1,1,1.0243038283624322,-1.492410232283025,1.1074596021926504,0.5689568470600931,0.9211115228714994,2.3581225872039795,0.0
362,1,362,-1,-1,-0.6785256464922164,-1.492410232283025,1.1074596021926504,0.4794656327378381,0.9211115228714994,1.2541108131408691,0.0
363,1,363,1,1,-0.16606227281126973,1.683111608655014,1.1074596021926504,0.5063978477855616,0.9211115228714994,1.7441045045852661,1.0
364,1,364,1,-1,-0.8421743394132645,1.683111608655014,1.1074596021926504,0.47086517070214046,0.9211115228714994,2.729140043258667,1.0
365,1,365,-1,1,0.01958980927355536,-1.492410232283025,1.1074596021926504,0.5161546851627418,0.9211115228714994,2.5611321926116943,0.0
366,1,366,-1,-1,-2.538449144041561,-1.492410232283025,1.1074596021926504,0.381718433267736,0.9211115228714994,1.2291110754013062,0.0
367,1,367,1,-1,-2.343190962168892,1.683111608655014,1.1074596021926504,0.39198011364159285,0.9211115228714994,1.8451032638549805,1.0
368,1,368,1,-1,-1.7554206048989072,1.683111608655014,1.1074596021926504,0.42287004348568746,0.9211115228714994,1.678105354309082,1.0
369,1,369,-1,-1,-1.3537950941724275,-1.492410232283025,1.1074596021926504,0.4439772390025941,0.9211115228714994,1.5111074447631836,0.0
370,1,370,1,1,0.2418141478717657,1.683111608655014,1.1074596021926504,0.5278335562457146,0.9211115228714994,1.128111720085144,1.0
371,1,371,-1,-1,0.4729084490352087,-1.492410232283025,1.1074596021926504,0.5399785830610596,0.9211115228714994,1.4961076974868774,0.0
372,1,372,-1,-1,-1.305166374954064,-1.492410232283025,1.1074596021926504,0.4465328931053978,0.9211115228714994,1.2081114053726196,0.0
373,1,373,1,1,1.8289669772588129,1.683111608655014,1.1074596021926504,0.6112454516317595,0.9211115228714994,1.4541082382202148,1.0
374,1,374,-1,-1,-0.8711961922123793,-1.492410232283025,1.1074596021926504,0.4693399440794945,0.9211115228714994,1.1621118783950806,0.0
375,1,375,1,-1,-1.5461038779323018,1.683111608655014,1.1074596021926504,0.43387056253402045,0.9211115228714994,1.3571094274520874,1.0
376,1,376,1,1,1.0743775107063902,1.683111608655014,1.1074596021926504,0.5715884403609609,0.9211115228714994,1.0551116466522217,1.0
377,1,377,1,-1,-1.1254752040546094,1.683111608655014,1.1074596021926504,0.45597645825636673,0.9211115228714994,1.98610520362854,1.0
378,1,378,-1,1,2.0808048280606175,-1.492410232283025,1.1074596021926504,0.6244806436538404,0.9211115228714994,1.2201112508773804,0.0
379,1,379,1,-1,-0.10695837527762986,1.683111608655014,1.1074596021926504,0.5095040188024305,0.9211115228714994,1.402108907699585,1.0
380,1,380,-1,1,2.3222182225918533,-1.492410232283025,1.1074596021926504,0.6371679844294644,0.9211115228714994,3.5041067600250244,0.0
381,1,381,-1,1,2.4765916028275314,-1.492410232283025,1.1074596021926504,0.6452809877925882,0.9211115228714994,2.3341214656829834,0.0
382,1,382,1,1,0.24477028485151875,1.683111608655014,1.1074596021926504,0.527988914308238,0.9211115228714994,1.1621118783950806,1.0
383,1,383,-1,-1,-0.7997434281326207,-1.492410232283025,1.1074596021926504,0.47309510260746457,0.9211115228714994,1.1491117477416992,0.0
384,1,384,1,-1,-0.18074177147135673,1.683111608655014,1.1074596021926504,0.5056263752569661,0.9211115228714994,1.4411084651947021,1.0
385,1,385,-1,1,-0.1546019248425332,-1.492410232283025,1.1074596021926504,0.5070001397187367,0.9211115228714994,1.4801079034805298,0.0
386,1,386,-1,-1,-2.300638842840999,-1.492410232283025,1.1074596021926504,0.39421641556546205,0.9211115228714994,1.2751104831695557,0.0
387,1,387,1,1,1.6138152288193321,1.683111608655014,1.1074596021926504,0.5999382764179589,0.9211115228714994,2.009106397628784,1.0
388,1,388,-1,1,0.7280581687913439,-1.492410232283025,1.1074596021926504,0.5533878284330359,0.9211115228714994,1.494107723236084,0.0
389,1,389,-1,-1,-2.129716988297295,-1.492410232283025,1.1074596021926504,0.40319911438715916,0.9211115228714994,1.073111653327942,0.0
390,1,390,-1,-1,-1.6978897574020595,-1.492410232283025,1.1074596021926504,0.42589354377124655,0.9211115228714994,1.3481096029281616,0.0
391,1,391,1,1,1.6113166910256216,1.683111608655014,1.1074596021926504,0.5998069672149583,0.9211115228714994,1.725104808807373,1.0
392,1,392,1,1,2.86731609799892,1.683111608655014,1.1074596021926504,0.6658152867665488,0.9211115228714994,1.5581068992614746,1.0
393,1,393,-1,-1,-0.21205600818277415,-1.492410232283025,1.1074596021926504,0.5039806737288559,0.9211115228714994,1.2791104316711426,0.0
394,1,394,1,1,0.8097022318560246,1.683111608655014,1.1074596021926504,0.5576785847616957,0.9211115228714994,1.1111117601394653,1.0
395,1,395,1,-1,-1.5734284705278576,1.683111608655014,1.1074596021926504,0.4324345344358776,0.9211115228714994,1.39910888671875,0.0
396,1,396,-1,-1,-0.9983823263027753,-1.492410232283025,1.1074596021926504,0.46265575065156817,0.9211115228714994,1.1211117506027222,0.0
397,1,397,1,1,0.09496573018148713,1.683111608655014,1.1074596021926504,0.5201160229198797,0.9211115228714994,1.2451108694076538,1.0
398,1,398,-1,1,1.5016902008971074,-1.492410232283025,1.1074596021926504,0.5940456106796395,0.9211115228714994,2.1101109981536865,1.0
399,1,399,1,-1,-0.5579294281360634,1.683111608655014,1.1074596021926504,0.48580349697071157,0.9211115228714994,1.5521069765090942,1.0
400,1,400,1,-1,-0.2982652268831646,1.683111608655014,1.1074596021926504,0.4994499982964675,0.9211115228714994,2.8931477069854736,1.0
401,1,401,-1,1,1.08537015715793,-1.492410232283025,1.1074596021926504,0.5721661525124654,0.9211115228714994,1.819103479385376,1.0
402,1,402,-1,1,-0.6710424994763047,-1.492410232283025,1.1074596021926504,0.47985890518425445,0.9211115228714994,2.3681230545043945,0.0
403,1,403,1,1,-1.1318046403328363,1.683111608655014,1.1074596021926504,0.45564381840788026,0.9211115228714994,1.4821078777313232,1.0
404,1,404,1,1,0.7992636779452893,1.683111608655014,1.1074596021926504,0.5571299926219456,0.9211115228714994,1.1471117734909058,1.0
405,1,405,1,-1,-1.1333991190660797,1.683111608655014,1.1074596021926504,0.45556002150387076,0.9211115228714994,1.2391109466552734,1.0
406,1,406,1,1,1.465146813045614,1.683111608655014,1.1074596021926504,0.5921250941496102,0.9211115228714994,1.0791116952896118,1.0
407,1,407,-1,1,2.427166196938132,-1.492410232283025,1.1074596021926504,0.6426834642843754,0.9211115228714994,1.3531094789505005,0.0
408,1,408,-1,-1,-1.4581828846180263,-1.492410232283025,1.1074596021926504,0.43849119928731894,0.9211115228714994,1.5531070232391357,0.0
409,1,409,1,1,2.153079348757216,1.683111608655014,1.1074596021926504,0.6282789891236648,0.9211115228714994,3.321120023727417,1.0
410,1,410,-1,1,-0.23378704979807607,-1.492410232283025,1.1074596021926504,0.502838611454648,0.9211115228714994,2.3081202507019043,0.0
411,1,411,-1,-1,-1.2319318421945649,-1.492410232283025,1.1074596021926504,0.45038169145176776,0.9211115228714994,1.1591118574142456,0.0
412,1,412,-1,-1,-0.9470594181345205,-1.492410232283025,1.1074596021926504,0.4653529962902829,0.9211115228714994,1.446108341217041,0.0
413,1,413,-1,-1,-0.6586286852214088,-1.492410232283025,1.1074596021926504,0.4805113059844792,0.9211115228714994,1.7831039428710938,0.0
414,1,414,1,1,1.4867089721098385,1.683111608655014,1.1074596021926504,0.593258280899406,0.9211115228714994,1.1691118478775024,1.0
415,1,415,1,-1,-1.224333778412312,1.683111608655014,1.1074596021926504,0.450781003282114,0.9211115228714994,1.285110354423523,1.0
416,1,416,1,1,-0.9086544477053302,1.683111608655014,1.1074596021926504,0.4673713472117761,0.9211115228714994,1.358109474182129,1.0
417,1,417,-1,-1,-1.3527082932073993,-1.492410232283025,1.1074596021926504,0.44403435519627243,0.9211115228714994,1.6631054878234863,0.0
418,1,418,-1,-1,-0.5802491331949293,-1.492410232283025,1.1074596021926504,0.4846304978310279,0.9211115228714994,1.262110710144043,0.0
419,1,419,1,-1,-1.9729089144858878,1.683111608655014,1.1074596021926504,0.411440071657478,0.9211115228714994,1.288110375404358,1.0
420,1,420,1,1,0.6888443572470994,1.683111608655014,1.1074596021926504,0.5513269693363856,0.9211115228714994,1.3701093196868896,1.0
421,1,421,1,1,2.27794488255166,1.683111608655014,1.1074596021926504,0.6348412247504677,0.9211115228714994,1.545107126235962,1.0
422,1,422,1,1,2.137777549533106,1.683111608655014,1.1074596021926504,0.6274748119502588,0.9211115228714994,1.3481096029281616,1.0
423,1,423,1,1,3.155138502810719,1.683111608655014,1.1074596021926504,0.6809416261305994,0.9211115228714994,1.2931102514266968,1.0
424,1,424,-1,-1,0.028213115208635564,-1.492410232283025,1.1074596021926504,0.5166078779991345,0.9211115228714994,3.2631242275238037,0.0
425,1,425,-1,-1,-0.5224530693652285,-1.492410232283025,1.1074596021926504,0.48766793640696515,0.9211115228714994,1.4041088819503784,0.0
426,1,426,1,1,-0.09824326004025541,1.683111608655014,1.1074596021926504,0.5099620366233973,0.9211115228714994,1.18511164188385,1.0
427,1,427,1,-1,0.6868524803724116,1.683111608655014,1.1074596021926504,0.5512222874037972,0.9211115228714994,1.0871117115020752,1.0
428,1,428,-1,1,2.875723327055228,-1.492410232283025,1.1074596021926504,0.6662571238080404,0.9211115228714994,1.2231111526489258,0.0
429,1,429,1,1,1.641851678233122,1.683111608655014,1.1074596021926504,0.6014117157378526,0.9211115228714994,1.2831103801727295,1.0
430,1,430,1,-1,-0.44034473065184176,1.683111608655014,1.1074596021926504,0.4919830924727663,0.9211115228714994,1.6231060028076172,1.0
431,1,431,-1,-1,-1.782213242667233,-1.492410232283025,1.1074596021926504,0.4214619719646161,0.9211115228714994,1.70010507106781,0.0
432,1,432,-1,1,0.6334092322717246,-1.492410232283025,1.1074596021926504,0.5484136085310849,0.9211115228714994,2.694138288497925,0.0
433,1,433,1,-1,-1.3132145899253818,1.683111608655014,1.1074596021926504,0.4461099238406855,0.9211115228714994,1.635105848312378,1.0
434,1,434,1,1,3.398915096445013,1.683111608655014,1.1074596021926504,0.6937531634629198,0.9211115228714994,2.273118734359741,1.0
435,1,435,1,1,1.2180969883079327,1.683111608655014,1.1074596021926504,0.579141534057216,0.9211115228714994,2.0551085472106934,1.0
436,1,436,1,1,0.7239538662599474,1.683111608655014,1.1074596021926504,0.5531721291966154,0.9211115228714994,1.329109787940979,1.0
437,1,437,1,-1,0.1743036034601575,1.683111608655014,1.1074596021926504,0.5242855787833989,0.9211115228714994,2.8181440830230713,1.0
438,1,438,-1,-1,-1.6623096648552753,-1.492410232283025,1.1074596021926504,0.42776343487586327,0.9211115228714994,1.325109839439392,0.0
439,1,439,1,-1,0.34476606341642824,1.683111608655014,1.1074596021926504,0.5332441343892956,0.9211115228714994,1.2421109676361084,1.0
440,1,440,-1,-1,-2.054505490659615,-1.492410232283025,1.1074596021926504,0.4071518109747995,0.9211115228714994,1.1571118831634521,0.0
441,1,441,1,-1,-1.272524859443578,1.683111608655014,1.1074596021926504,0.44824834900012356,0.9211115228714994,1.4071087837219238,1.0
442,1,442,-1,1,1.7915830763152418,-1.492410232283025,1.1074596021926504,0.6092807624242106,0.9211115228714994,1.3971089124679565,0.0
443,1,443,1,-1,-1.9418084765295303,1.683111608655014,1.1074596021926504,0.41307453711615577,0.9211115228714994,1.1841117143630981,1.0
444,1,444,-1,1,1.6093717868181447,-1.492410232283025,1.1074596021926504,0.5997047539036211,0.9211115228714994,1.192111611366272,0.0
445,1,445,1,-1,-0.44140395219743467,1.683111608655014,1.1074596021926504,0.4919274256994627,0.9211115228714994,2.0381076335906982,1.0
446,1,446,1,1,2.295201721691801,1.683111608655014,1.1074596021926504,0.6357481479114888,0.9211115228714994,1.3531094789505005,1.0
447,1,447,-1,1,0.8622749993820022,-1.492410232283025,1.1074596021926504,0.5604415160332389,0.9211115228714994,1.2261111736297607,0.0
448,1,448,1,1,-0.2302267128205706,1.683111608655014,1.1074596021926504,0.5030257228972312,0.9211115228714994,1.8741028308868408,1.0
449,1,449,-1,-1,-3.174791137335352,-1.492410232283025,1.1074596021926504,0.34827584929498295,0.9211115228714994,1.8561030626296997,0.0
450,1,450,1,-1,-0.7753349238913173,1.683111608655014,1.1074596021926504,0.47437787737534354,0.9211115228714994,1.134111762046814,1.0
451,1,451,1,1,1.8599950847946172,1.683111608655014,1.1074596021926504,0.6128761158071829,0.9211115228714994,1.1181117296218872,1.0
452,1,452,-1,-1,-1.008919189570991,-1.492410232283025,1.1074596021926504,0.4621019919206179,0.9211115228714994,2.0921101570129395,0.0
453,1,453,1,-1,-1.8299226514546967,1.683111608655014,1.1074596021926504,0.4189546316877211,0.9211115228714994,1.3691092729568481,1.0
454,1,454,-1,-1,-0.07135620403261633,-1.492410232283025,1.1074596021926504,0.5113750702402129,0.9211115228714994,1.911102294921875,0.0
455,1,455,-1,-1,1.662376885413961,-1.492410232283025,1.1074596021926504,0.6024904060835115,0.9211115228714994,1.998105764389038,0.0
456,1,456,1,-1,-1.246149479640511,1.683111608655014,1.1074596021926504,0.44963449177110687,0.9211115228714994,1.1071116924285889,1.0
457,1,457,1,-1,-1.6934207337348481,1.683111608655014,1.1074596021926504,0.4261284107151886,0.9211115228714994,1.3701093196868896,1.0
458,1,458,1,-1,-1.6220157557840191,1.683111608655014,1.1074596021926504,0.42988105787089925,0.9211115228714994,1.2391109466552734,1.0
459,1,459,1,1,1.2805910222790415,1.683111608655014,1.1074596021926504,0.5824258717261116,0.9211115228714994,1.4321085214614868,1.0
460,1,460,-1,1,1.5864038073481557,-1.492410232283025,1.1074596021926504,0.5984976850786741,0.9211115228714994,2.3301212787628174,0.0
461,1,461,1,1,2.575428370559314,1.683111608655014,1.1074596021926504,0.6504752967322776,0.9211115228714994,1.2161113023757935,1.0
462,1,462,-1,-1,-1.1562323189990813,-1.492410232283025,1.1074596021926504,0.4543600359392319,0.9211115228714994,3.2191274166107178,0.0
463,1,463,1,-1,-0.8360821912260731,1.683111608655014,1.1074596021926504,0.4711853400127811,0.9211115228714994,1.3421096801757812,1.0
464,1,464,1,1,0.5756142155160959,1.683111608655014,1.1074596021926504,0.5453762249835176,0.9211115228714994,1.969104528427124,0.0
465,1,465,1,1,1.597489024146288,1.683111608655014,1.1074596021926504,0.5990802622109938,0.9211115228714994,1.3591094017028809,1.0
466,1,466,-1,1,-0.20717663766948213,-1.492410232283025,1.1074596021926504,0.5042371062130305,0.9211115228714994,1.5021076202392578,0.0
467,1,467,1,1,1.8514922956095954,1.683111608655014,1.1074596021926504,0.6124292566586128,0.9211115228714994,1.2241111993789673,1.0
468,1,468,1,1,1.604871318296977,1.683111608655014,1.1074596021926504,0.5994682343936374,0.9211115228714994,1.8301033973693848,1.0
469,1,469,-1,-1,-1.5611914183172595,-1.492410232283025,1.1074596021926504,0.4330776456094992,0.9211115228714994,2.0591087341308594,0.0
470,1,470,1,1,0.7288520754704313,1.683111608655014,1.1074596021926504,0.5534295517375823,0.9211115228714994,1.4891078472137451,1.0
471,1,471,-1,1,1.7787145896881693,-1.492410232283025,1.1074596021926504,0.6086044665814665,0.9211115228714994,1.2941102981567383,0.0
472,1,472,1,-1,-1.852528992675823,1.683111608655014,1.1074596021926504,0.4177665685509619,0.9211115228714994,1.7201048135757446,1.0
473,1,473,1,1,0.7325594909052386,1.683111608655014,1.1074596021926504,0.5536243928030897,0.9211115228714994,1.0761116743087769,1.0
474,1,474,-1,1,-0.1736647550491892,-1.492410232283025,1.1074596021926504,0.5059983037458433,0.9211115228714994,1.0691115856170654,0.0
475,1,475,-1,-1,-2.86880294514875,-1.492410232283025,1.1074596021926504,0.3643568810667568,0.9211115228714994,1.4891078472137451,0.0
476,1,476,1,1,-0.18979466235624143,1.683111608655014,1.1074596021926504,0.50515060583297,0.9211115228714994,1.7591042518615723,1.0
477,1,477,-1,-1,0.016032091515189695,-1.492410232283025,1.1074596021926504,0.5159677113716996,0.9211115228714994,1.2751104831695557,0.0
478,1,478,1,-1,-0.7373118810566242,1.683111608655014,1.1074596021926504,0.4763761563138698,0.9211115228714994,1.4611082077026367,1.0
479,1,479,1,-1,-2.611439844884485,1.683111608655014,1.1074596021926504,0.37788244936616344,0.9211115228714994,1.91410231590271,1.0
480,1,480,-1,1,1.370705694892188,-1.492410232283025,1.1074596021926504,0.5871617960212272,0.9211115228714994,1.3491095304489136,0.0
481,1,481,-1,-1,0.12759960324829578,-1.492410232283025,1.1074596021926504,0.5218310771704154,0.9211115228714994,1.2301111221313477,0.0
482,1,482,-1,-1,-1.4764954651269169,-1.492410232283025,1.1074596021926504,0.4375287922516676,0.9211115228714994,1.9021024703979492,0.0
483,1,483,-1,1,2.5828847288004226,-1.492410232283025,1.1074596021926504,0.6508671613101886,0.9211115228714994,1.4151086807250977,0.0
484,1,484,-1,-1,-1.0305502117571255,-1.492410232283025,1.1074596021926504,0.4609651861094347,0.9211115228714994,1.4361084699630737,0.0
485,1,485,-1,-1,-0.09058845242957658,-1.492410232283025,1.1074596021926504,0.5103643305926988,0.9211115228714994,1.7681041955947876,0.0
486,1,486,-1,-1,0.13074831717874824,-1.492410232283025,1.1074596021926504,0.5219965560027652,0.9211115228714994,1.1261117458343506,0.0
487,1,487,1,-1,-1.349993918600112,1.683111608655014,1.1074596021926504,0.4441770075776874,0.9211115228714994,1.7451045513153076,1.0
488,1,488,-1,-1,-0.9819001475373337,-1.492410232283025,1.1074596021926504,0.4635219619863947,0.9211115228714994,1.491107702255249,0.0
489,1,489,1,1,1.7239597292362334,1.683111608655014,1.1074596021926504,0.6057268566832072,0.9211115228714994,1.5271072387695312,1.0
490,1,490,-1,1,1.4182088496218916,-1.492410232283025,1.1074596021926504,0.5896582967358757,0.9211115228714994,1.792103886604309,0.0
491,1,491,-1,1,1.998057969104768,-1.492410232283025,1.1074596021926504,0.6201319305274462,0.9211115228714994,2.3161206245422363,0.0
492,1,492,-1,1,0.724265831338032,-1.492410232283025,1.1074596021926504,0.5531885243401551,0.9211115228714994,1.067111611366272,0.0
493,1,493,1,-1,-1.1542898689848728,1.683111608655014,1.1074596021926504,0.45446212027186694,0.9211115228714994,1.218111276626587,1.0
494,1,494,-1,-1,-0.595874005410842,-1.492410232283025,1.1074596021926504,0.48380934174412643,0.9211115228714994,1.3861091136932373,0.0
495,1,495,-1,-1,-1.4314971399214365,-1.492410232283025,1.1074596021926504,0.43989365310507156,0.9211115228714994,2.1571133136749268,0.0
496,1,496,-1,1,0.9658506498579527,-1.492410232283025,1.1074596021926504,0.565884874203969,0.9211115228714994,1.2471108436584473,0.0
497,1,497,-1,-1,-2.643278479317227,-1.492410232283025,1.1074596021926504,0.3762091884202947,0.9211115228714994,2.3511223793029785,1.0
498,1,498,1,1,0.4287571499634889,1.683111608655014,1.1074596021926504,0.5376582371742993,0.9211115228714994,1.2681106328964233,1.0
499,1,499,-1,1,0.3048321843684987,-1.492410232283025,1.1074596021926504,0.5311454325630882,0.9211115228714994,1.6921051740646362,0.0
500,2,0,-1,1,1.5944295665273962,0.1929454729244482,0.9036048743914651,0.648237855306362,0.9989450730104235,1.1889452934265137,1.0
501,2,1,-1,-1,-1.0352227282950772,0.1929454729244482,0.9036048743914651,0.5481672123725179,0.9989450730104235,1.56494140625,1.0
502,2,2,-1,1,1.007530569891185,0.1929454729244482,0.9036048743914651,0.6259035869902618,0.9989450730104235,1.7859385013580322,0.0
503,2,3,-1,1,1.796181748093156,0.1929454729244482,0.9036048743914651,0.6559154751051248,0.9989450730104235,1.1929452419281006,1.0
504,2,4,-1,-1,-2.042367945460059,0.1929454729244482,0.9036048743914651,0.5098405980106561,0.9989450730104235,1.5949409008026123,0.0
505,2,5,-1,1,-0.5314213042630349,0.1929454729244482,0.9036048743914651,0.5673392270579333,0.9989450730104235,1.2219452857971191,1.0
506,2,6,-1,1,2.257065239002057,0.1929454729244482,0.9036048743914651,0.6734542604965075,0.9989450730104235,1.0469449758529663,1.0
507,2,7,1,-1,-0.4826894266573002,0.44933871992304386,0.9036048743914651,0.569193704295468,0.9989450730104235,1.1519452333450317,1.0
508,2,8,-1,1,0.05692894669544735,0.1929454729244482,0.9036048743914651,0.5897287224294795,0.9989450730104235,2.33795166015625,1.0
509,2,9,1,-1,-0.1017779719747568,0.44933871992304386,0.9036048743914651,0.5836891774217055,0.9989450730104235,2.103940725326538,1.0
510,2,10,-1,1,2.3728758790033666,0.1929454729244482,0.9036048743914651,0.6778614002641221,0.9989450730104235,2.057938575744629,0.0
511,2,11,1,-1,-0.3263460199710889,0.44933871992304386,0.9036048743914651,0.5751433065513863,0.9989450730104235,1.3099446296691895,1.0
512,2,12,-1,-1,-1.2843196836636717,0.1929454729244482,0.9036048743914651,0.5386879011625614,0.9989450730104235,1.1049450635910034,1.0
513,2,13,-1,-1,-0.6843673102724224,0.1929454729244482,0.9036048743914651,0.5615189118833157,0.9989450730104235,1.510941982269287,1.0
514,2,14,1,-1,-1.5263733183296149,0.44933871992304386,0.9036048743914651,0.5294766214457767,0.9989450730104235,1.3109445571899414,1.0
515,2,15,-1,-1,-1.5277091141256913,0.1929454729244482,0.9036048743914651,0.529425788130511,0.9989450730104235,1.5899410247802734,1.0
516,2,16,1,-1,-0.19001958276792963,0.44933871992304386,0.9036048743914651,0.5803311689340522,0.9989450730104235,2.4699578285217285,1.0
517,2,17,1,1,-1.1267398477422468,0.44933871992304386,0.9036048743914651,0.5446845553685622,0.9989450730104235,1.2519453763961792,1.0
518,2,18,-1,-1,0.2683058991788796,0.1929454729244482,0.9036048743914651,0.5977726100484096,0.9989450730104235,1.334944248199463,1.0
519,2,19,1,1,2.2830102332754048,0.44933871992304386,0.9036048743914651,0.6744415896057441,0.9989450730104235,1.8119381666183472,0.0
520,2,20,-1,-1,-1.6977320467617996,0.1929454729244482,0.9036048743914651,0.522955615546899,0.9989450730104235,4.004909515380859,0.0
521,2,21,1,-1,-1.4498637964832295,0.44933871992304386,0.9036048743914651,0.5323881687468413,0.9989450730104235,2.0019359588623047,1.0
522,2,22,-1,1,0.6251008075488899,0.1929454729244482,0.9036048743914651,0.6113503351135857,0.9989450730104235,1.326944351196289,1.0
523,2,23,-1,-1,-1.7130725057457616,0.1929454729244482,0.9036048743914651,0.522371838902189,0.9989450730104235,1.6179406642913818,0.0
524,2,24,-1,1,1.5205766887353716,0.1929454729244482,0.9036048743914651,0.645427405811684,0.9989450730104235,1.3399442434310913,1.0
525,2,25,-1,-1,-1.8098511363285716,0.1929454729244482,0.9036048743914651,0.5186889566429081,0.9989450730104235,1.2969447374343872,0.0
526,2,26,1,1,0.2479798589508111,0.44933871992304386,0.9036048743914651,0.5969991085790607,0.9989450730104235,1.2689450979232788,1.0
527,2,27,-1,1,-0.35761141798609697,0.1929454729244482,0.9036048743914651,0.5739535110460624,0.9989450730104235,1.329944372177124,0.0
528,2,28,1,1,1.9190794446072896,0.44933871992304386,0.9036048743914651,0.6605923107192752,0.9989450730104235,1.3939435482025146,1.0
529,2,29,-1,-1,-1.5254926917453426,0.1929454729244482,0.9036048743914651,0.5295101334308578,0.9989450730104235,1.745939016342163,1.0
530,2,30,-1,-1,-0.90459093855588,0.1929454729244482,0.9036048743914651,0.5531383666245604,0.9989450730104235,1.1389451026916504,1.0
531,2,31,1,1,1.3453603360477424,0.44933871992304386,0.9036048743914651,0.6387595991588817,0.9989450730104235,2.56396222114563,1.0
532,2,32,1,1,2.1787292738818245,0.44933871992304386,0.9036048743914651,0.6704732084350394,0.9989450730104235,1.4199432134628296,1.0
533,2,33,-1,-1,-2.696259733851204,0.1929454729244482,0.9036048743914651,0.484956938751864,0.9989450730104235,1.1899452209472656,0.0
534,2,34,-1,1,1.769881765826646,0.1929454729244482,0.9036048743914651,0.6549146370324488,0.9989450730104235,3.3669557571411133,1.0
535,2,35,-1,1,2.301125332740827,0.1929454729244482,0.9036048743914651,0.6751309543760919,0.9989450730104235,1.422943115234375,0.0
536,2,36,1,1,2.689042894575829,0.44933871992304386,0.9036048743914651,0.6898930428448181,0.9989450730104235,1.1839452981948853,1.0
537,2,37,-1,-1,-1.282191824858129,0.1929454729244482,0.9036048743914651,0.538768876202175,0.9989450730104235,1.8089382648468018,1.0
538,2,38,1,-1,-0.9077818289527423,0.44933871992304386,0.9036048743914651,0.5530169382310902,0.9989450730104235,1.6809399127960205,0.0
539,2,39,-1,-1,-1.1902077568377392,0.1929454729244482,0.9036048743914651,0.5422693027964416,0.9989450730104235,1.2739450931549072,1.0
540,2,40,1,1,1.937669846558752,0.44933871992304386,0.9036048743914651,0.661299762985624,0.9989450730104235,1.136945128440857,1.0
541,2,41,1,-1,-1.2293381997074389,0.44933871992304386,0.9036048743914651,0.5407802053275608,0.9989450730104235,1.1139451265335083,1.0
542,2,42,-1,1,0.5230726183175842,0.1929454729244482,0.9036048743914651,0.6074676824473548,0.9989450730104235,1.3009446859359741,1.0
543,2,43,1,1,0.6881600415560901,0.44933871992304386,0.9036048743914651,0.613750035675687,0.9989450730104235,3.3449573516845703,1.0
544,2,44,-1,-1,-0.8722580494595914,0.1929454729244482,0.9036048743914651,0.5543687851883169,0.9989450730104235,1.88893723487854,0.0
545,2,45,-1,-1,-2.895282665364358,0.1929454729244482,0.9036048743914651,0.47738317975934885,0.9989450730104235,2.2069454193115234,0.0
546,2,46,-1,1,1.2837474795661683,0.1929454729244482,0.9036048743914651,0.6364149400671678,0.9989450730104235,1.226945400238037,1.0
547,2,47,-1,-1,-0.2357222322222422,0.1929454729244482,0.9036048743914651,0.5785919680808908,0.9989450730104235,2.358952522277832,1.0
548,2,48,-1,-1,-2.6569358021554694,0.1929454729244482,0.9036048743914651,0.4864533993809847,0.9989450730104235,1.2419453859329224,0.0
549,2,49,-1,1,3.5487946131587225,0.1929454729244482,0.9036048743914651,0.7226106410654892,0.9989450730104235,1.9349365234375,1.0
550,2,50,-1,-1,-1.931810282549649,0.1929454729244482,0.9036048743914651,0.5140478372835026,0.9989450730104235,2.575962781906128,1.0
551,2,51,-1,1,-0.07046654276561637,0.1929454729244482,0.9036048743914651,0.5848807246305534,0.9989450730104235,2.7059688568115234,1.0
552,2,52,1,-1,0.3253992623007995,0.44933871992304386,0.9036048743914651,0.5999452811525381,0.9989450730104235,1.800938367843628,1.0
553,2,53,1,1,1.6297300266495816,0.44933871992304386,0.9036048743914651,0.6495812039107546,0.9989450730104235,1.1159451007843018,1.0
554,2,54,1,1,0.5538355853139524,0.44933871992304386,0.9036048743914651,0.6086383580883665,0.9989450730104235,1.7579388618469238,1.0
555,2,55,1,1,1.1023934557636246,0.44933871992304386,0.9036048743914651,0.6295135661492958,0.9989450730104235,1.9229366779327393,0.0
556,2,56,-1,-1,-1.0352001284007175,0.1929454729244482,0.9036048743914651,0.5481680724048359,0.9989450730104235,1.5489416122436523,0.0
557,2,57,1,1,0.626143792126635,0.44933871992304386,0.9036048743914651,0.61139002558425,0.9989450730104235,1.2499454021453857,1.0
558,2,58,-1,-1,-2.1582701505268775,0.1929454729244482,0.9036048743914651,0.5054299737614643,0.9989450730104235,1.1789453029632568,1.0
559,2,59,1,1,-0.8980083091564914,0.44933871992304386,0.9036048743914651,0.553388866645985,0.9989450730104235,2.602963924407959,1.0
560,2,60,-1,1,1.9336579597431753,0.1929454729244482,0.9036048743914651,0.6611470918154456,0.9989450730104235,1.7209393978118896,1.0
561,2,61,1,1,-0.14725584571104378,0.44933871992304386,0.9036048743914651,0.5819585303422361,0.9989450730104235,1.6329405307769775,1.0
562,2,62,1,1,0.40084845489326604,0.44933871992304386,0.9036048743914651,0.6028164779363994,0.9989450730104235,1.6239405870437622,1.0
563,2,63,-1,1,1.5400259477292524,0.1929454729244482,0.9036048743914651,0.6461675416296158,0.9989450730104235,1.892937183380127,0.0
564,2,64,1,-1,0.7191793879833566,0.44933871992304386,0.9036048743914651,0.6149304677603682,0.9989450730104235,2.2379469871520996,0.0
565,2,65,-1,-1,-2.0110309382184752,0.1929454729244482,0.9036048743914651,0.5110331185839889,0.9989450730104235,3.0369796752929688,1.0
566,2,66,-1,-1,-0.3817183106237956,0.1929454729244482,0.9036048743914651,0.5730361303527512,0.9989450730104235,3.304960250854492,1.0
567,2,67,-1,1,1.808563365471286,0.1929454729244482,0.9036048743914651,0.6563866539047061,0.9989450730104235,1.2719451189041138,1.0
568,2,68,1,1,2.648946460667809,0.44933871992304386,0.9036048743914651,0.6883671848717202,0.9989450730104235,1.705939531326294,1.0
569,2,69,-1,1,-0.27819980327002436,0.1929454729244482,0.9036048743914651,0.5769754966358298,0.9989450730104235,3.969912052154541,0.0
570,2,70,-1,-1,-1.6236845199483656,0.1929454729244482,0.9036048743914651,0.5257734723527097,0.9989450730104235,1.3849436044692993,1.0
571,2,71,-1,1,1.7097325382166806,0.1929454729244482,0.9036048743914651,0.6526256759060084,0.9989450730104235,1.447942852973938,0.0
572,2,72,1,1,1.8053085549975414,0.44933871992304386,0.9036048743914651,0.6562627930515519,0.9989450730104235,1.6159406900405884,0.0
573,2,73,1,-1,-1.3314360176336646,0.44933871992304386,0.9036048743914651,0.5368949029618691,0.9989450730104235,3.389954090118408,1.0
574,2,74,1,-1,-1.8190187447381754,0.44933871992304386,0.9036048743914651,0.5183400860072271,0.9989450730104235,2.0149364471435547,1.0
575,2,75,-1,1,-0.13487325269262107,0.1929454729244482,0.9036048743914651,0.582429746269521,0.9989450730104235,2.4739580154418945,0.0
576,2,76,1,1,-0.08155043308809562,0.44933871992304386,0.9036048743914651,0.5844589304515425,0.9989450730104235,1.2489453554153442,1.0
577,2,77,1,1,1.498515118877401,0.44933871992304386,0.9036048743914651,0.6445878592738532,0.9989450730104235,1.510941982269287,1.0
578,2,78,-1,1,0.985555677510335,0.1929454729244482,0.9036048743914651,0.6250673389382728,0.9989450730104235,1.071945071220398,1.0
579,2,79,-1,1,1.123295888704758,0.1929454729244482,0.9036048743914651,0.6303090020734364,0.9989450730104235,2.7989730834960938,1.0
580,2,80,-1,1,1.504382430933096,0.1929454729244482,0.9036048743914651,0.6448111381046184,0.9989450730104235,1.520941972732544,1.0
581,2,81,-1,-1,-2.124879711451142,0.1929454729244482,0.9036048743914651,0.5067006370779534,0.9989450730104235,1.9739360809326172,0.0
582,2,82,-1,1,1.6724405638605453,0.1929454729244482,0.9036048743914651,0.6512065408144838,0.9989450730104235,2.0329372882843018,0.0
583,2,83,1,1,-0.19056619260856378,0.44933871992304386,0.9036048743914651,0.5803103678576916,0.9989450730104235,2.2789487838745117,0.0
584,2,84,-1,1,1.8546694123845586,0.1929454729244482,0.9036048743914651,0.6581412059292583,0.9989450730104235,2.614964485168457,1.0
585,2,85,-1,1,-1.3666790591726912,0.1929454729244482,0.9036048743914651,0.5355537394047334,0.9989450730104235,1.4369429349899292,1.0
586,2,86,1,-1,-1.5173313411073015,0.44933871992304386,0.9036048743914651,0.5298207112236578,0.9989450730104235,1.6679400205612183,1.0
587,2,87,-1,-1,-2.2075663946914927,0.1929454729244482,0.9036048743914651,0.5035540197208903,0.9989450730104235,2.1909446716308594,1.0
588,2,88,1,1,-0.631024560789609,0.44933871992304386,0.9036048743914651,0.5635488544909807,0.9989450730104235,1.3579440116882324,1.0
589,2,89,1,-1,-0.9193396651979565,0.44933871992304386,0.9036048743914651,0.5525771081796953,0.9989450730104235,1.196945309638977,0.0
590,2,90,-1,1,-0.9984092073672708,0.1929454729244482,0.9036048743914651,0.5495681400598618,0.9989450730104235,2.2049453258514404,1.0
591,2,91,1,1,-0.6770245816851759,0.44933871992304386,0.9036048743914651,0.5617983372552788,0.9989450730104235,1.381943702697754,1.0
592,2,92,1,-1,-2.4074184890487733,0.44933871992304386,0.9036048743914651,0.49594870718075523,0.9989450730104235,1.2949447631835938,1.0
593,2,93,-1,1,1.2962060236634314,0.1929454729244482,0.9036048743914651,0.6368890462903698,0.9989450730104235,1.348944067955017,1.0
594,2,94,1,-1,-2.8400805522327905,0.44933871992304386,0.9036048743914651,0.47948387990258046,0.9989450730104235,2.2279465198516846,1.0
595,2,95,-1,1,1.0899519467126724,0.1929454729244482,0.9036048743914651,0.6290401081897596,0.9989450730104235,1.560941457748413,0.0
596,2,96,-1,1,0.600137833080137,0.1929454729244482,0.9036048743914651,0.610400376478542,0.9989450730104235,1.473942518234253,1.0
597,2,97,-1,1,-0.2887310252455271,0.1929454729244482,0.9036048743914651,0.5765747340878524,0.9989450730104235,2.7129690647125244,1.0
598,2,98,-1,1,0.3462804941286436,0.1929454729244482,0.9036048743914651,0.6007399102745621,0.9989450730104235,1.1619452238082886,1.0
599,2,99,-1,1,0.2984597277299551,0.1929454729244482,0.9036048743914651,0.5989201051054421,0.9989450730104235,1.4789423942565918,0.0
600,2,100,1,-1,-1.0196492828975483,0.44933871992304386,0.9036048743914651,0.5487598552465185,0.9989450730104235,1.5119420289993286,0.0
601,2,101,1,-1,0.11147295991783812,0.44933871992304386,0.9036048743914651,0.5918043787746562,0.9989450730104235,1.7679387331008911,1.0
602,2,102,1,1,1.3743403109116963,0.44933871992304386,0.9036048743914651,0.639862423559869,0.9989450730104235,1.5379416942596436,1.0
603,2,103,1,1,-0.948897448166611,0.44933871992304386,0.9036048743914651,0.5514522954616048,0.9989450730104235,1.6039408445358276,1.0
604,2,104,1,1,0.39847019553080876,0.44933871992304386,0.9036048743914651,0.6027259739774032,0.9989450730104235,1.8549375534057617,0.0
605,2,105,1,1,-0.29050415831576437,0.44933871992304386,0.9036048743914651,0.576507258031533,0.9989450730104235,1.745939016342163,1.0
606,2,106,1,1,1.8405274839117614,0.44933871992304386,0.9036048743914651,0.6576030390098584,0.9989450730104235,1.4139432907104492,1.0
607,2,107,1,-1,-2.01305336162321,0.44933871992304386,0.9036048743914651,0.5109561558574739,0.9989450730104235,1.8309378623962402,1.0
608,2,108,-1,-1,-0.974400866822704,0.1929454729244482,0.9036048743914651,0.550481770382319,0.9989450730104235,2.2719485759735107,0.0
609,2,109,-1,-1,-1.6485273642422467,0.1929454729244482,0.9036048743914651,0.5248280852360597,0.9989450730104235,2.839975118637085,1.0
610,2,110,1,1,2.0861372841047388,0.44933871992304386,0.9036048743914651,0.6669496475575195,0.9989450730104235,1.6219406127929688,0.0
611,2,111,1,-1,-1.274425378043734,0.44933871992304386,0.9036048743914651,0.5390644260463723,0.9989450730104235,1.7149393558502197,1.0
612,2,112,-1,-1,-2.4819271113838672,0.1929454729244482,0.9036048743914651,0.4931133035207854,0.9989450730104235,1.5869410037994385,1.0
613,2,113,1,1,1.4172327691433957,0.44933871992304386,0.9036048743914651,0.6414946834144172,0.9989450730104235,2.4039547443389893,1.0
614,2,114,-1,-1,-0.9239954334203864,0.1929454729244482,0.9036048743914651,0.5523999342923769,0.9989450730104235,1.1319451332092285,1.0
615,2,115,-1,-1,0.9596248989383438,0.1929454729244482,0.9036048743914651,0.6240805508033611,0.9989450730104235,2.4669575691223145,0.0
616,2,116,1,-1,-0.16080654483385404,0.44933871992304386,0.9036048743914651,0.5814428624814727,0.9989450730104235,1.1919453144073486,1.0
617,2,117,-1,1,1.1280460311016038,0.1929454729244482,0.9036048743914651,0.6304897673421435,0.9989450730104235,1.227945327758789,1.0
618,2,118,1,-1,-2.0975147374443877,0.44933871992304386,0.9036048743914651,0.5077420030973756,0.9989450730104235,1.3679438829421997,1.0
619,2,119,-1,-1,-1.6990583038299034,0.1929454729244482,0.9036048743914651,0.5229051452251146,0.9989450730104235,1.6049408912658691,1.0
620,2,120,1,1,0.9915461043586302,0.44933871992304386,0.9036048743914651,0.6252953028661797,0.9989450730104235,1.3849436044692993,1.0
621,2,121,-1,1,2.1408275006600492,0.1929454729244482,0.9036048743914651,0.6690308676274339,0.9989450730104235,1.6209406852722168,0.0
622,2,122,-1,-1,-0.40389567006170646,0.1929454729244482,0.9036048743914651,0.5721921774765872,0.9989450730104235,1.3099446296691895,0.0
623,2,123,1,-1,-0.9433387298339391,0.44933871992304386,0.9036048743914651,0.5516638308492048,0.9989450730104235,1.1319451332092285,1.0
624,2,124,1,1,1.3197758880296604,0.44933871992304386,0.9036048743914651,0.6377859905311107,0.9989450730104235,1.095945119857788,1.0
625,2,125,1,-1,0.2769133972928437,0.44933871992304386,0.9036048743914651,0.5981001658518945,0.9989450730104235,1.1619452238082886,1.0
626,2,126,-1,1,0.5001056928602337,0.1929454729244482,0.9036048743914651,0.6065936828690623,0.9989450730104235,1.2419453859329224,1.0
627,2,127,-1,-1,-1.7141921005054823,0.1929454729244482,0.9036048743914651,0.522329233053632,0.9989450730104235,1.6399403810501099,0.0
628,2,128,1,-1,-1.2729450783980958,0.44933871992304386,0.9036048743914651,0.5391207584130374,0.9989450730104235,1.39694344997406,1.0
629,2,129,-1,-1,0.08418943473175045,0.1929454729244482,0.9036048743914651,0.5907661122660957,0.9989450730104235,1.566941261291504,0.0
630,2,130,-1,-1,-1.5045043487233292,0.1929454729244482,0.9036048743914651,0.5303088386378025,0.9989450730104235,1.0919450521469116,1.0
631,2,131,-1,-1,-0.542391752444054,0.1929454729244482,0.9036048743914651,0.5669217498861762,0.9989450730104235,1.6649401187896729,1.0
632,2,132,-1,-1,-2.6723837534277655,0.1929454729244482,0.9036048743914651,0.4858655321489278,0.9989450730104235,1.2069453001022339,0.0
633,2,133,-1,1,2.0793405715649316,0.1929454729244482,0.9036048743914651,0.6666910006652919,0.9989450730104235,1.6889398097991943,0.0
634,2,134,1,-1,-0.24725365445197456,0.44933871992304386,0.9036048743914651,0.5781531432070689,0.9989450730104235,1.1529451608657837,1.0
635,2,135,-1,1,0.7533957736695809,0.1929454729244482,0.9036048743914651,0.6162325622316542,0.9989450730104235,2.4319560527801514,1.0
636,2,136,1,-1,-0.4594150841811563,0.44933871992304386,0.9036048743914651,0.570079402537793,0.9989450730104235,1.3359442949295044,1.0
637,2,137,-1,-1,-0.06837778633222213,0.1929454729244482,0.9036048743914651,0.584960211640921,0.9989450730104235,1.9059369564056396,1.0
638,2,138,-1,1,0.5456326772757429,0.1929454729244482,0.9036048743914651,0.6083261988409531,0.9989450730104235,1.2999447584152222,1.0
639,2,139,1,1,-0.35950423800029774,0.44933871992304386,0.9036048743914651,0.5738814803383707,0.9989450730104235,1.9039369821548462,1.0
640,2,140,1,1,1.8254670023487671,0.44933871992304386,0.9036048743914651,0.6570299168233742,0.9989450730104235,1.1409451961517334,1.0
641,2,141,-1,-1,-2.0984717219943363,0.1929454729244482,0.9036048743914651,0.5077055853324187,0.9989450730104235,2.5239603519439697,1.0
642,2,142,1,1,1.6126836402927678,0.44933871992304386,0.9036048743914651,0.6489325087027289,0.9989450730104235,2.1729438304901123,0.0
643,2,143,-1,-1,0.23890070112889572,0.1929454729244482,0.9036048743914651,0.5966536039044215,0.9989450730104235,1.1389451026916504,1.0
644,2,144,1,1,2.769714239905512,0.44933871992304386,0.9036048743914651,0.6929629671117541,0.9989450730104235,1.5129420757293701,1.0
645,2,145,-1,1,1.8365603865198126,0.1929454729244482,0.9036048743914651,0.6574520722879937,0.9989450730104235,1.6439403295516968,1.0
646,2,146,-1,1,1.6534918478993785,0.1929454729244482,0.9036048743914651,0.6504854530141163,0.9989450730104235,1.7339391708374023,0.0
647,2,147,-1,-1,-0.5556509979022084,0.1929454729244482,0.9036048743914651,0.5664171732087091,0.9989450730104235,1.6769399642944336,1.0
648,2,148,-1,1,-0.1780461176626098,0.1929454729244482,0.9036048743914651,0.5807868156192031,0.9989450730104235,1.6349403858184814,0.0
649,2,149,-1,1,0.9309409480515894,0.1929454729244482,0.9036048743914651,0.6229889915075667,0.9989450730104235,2.604964017868042,1.0
650,2,150,-1,1,1.6093896073472378,0.1929454729244482,0.9036048743914651,0.6488071552499727,0.9989450730104235,2.6889679431915283,1.0
651,2,151,-1,1,2.2962289178513133,0.1929454729244482,0.9036048743914651,0.6749446227507934,0.9989450730104235,1.2029452323913574,0.0
652,2,152,-1,-1,-1.7851814570142577,0.1929454729244482,0.9036048743914651,0.5196277540173047,0.9989450730104235,1.3149445056915283,0.0
653,2,153,1,1,-0.029369251575656508,0.44933871992304386,0.9036048743914651,0.5864446699324917,0.9989450730104235,1.311944603919983,1.0
654,2,154,-1,-1,-0.5578360773414655,0.1929454729244482,0.9036048743914651,0.5663340206547466,0.9989450730104235,1.7649388313293457,1.0
655,2,155,1,-1,-0.5762641654110543,0.44933871992304386,0.9036048743914651,0.565632745195327,0.9989450730104235,2.824974298477173,1.0
656,2,156,1,-1,1.2115456868032375,0.44933871992304386,0.9036048743914651,0.6336673221265798,0.9989450730104235,1.426943063735962,0.0
657,2,157,-1,-1,-0.867320875596092,0.1929454729244482,0.9036048743914651,0.5545566678843559,0.9989450730104235,2.307950258255005,1.0
658,2,158,1,1,2.6885228358023108,0.44933871992304386,0.9036048743914651,0.6898732521614901,0.9989450730104235,1.7729387283325195,1.0
659,2,159,-1,-1,-3.1953073502466305,0.1929454729244482,0.9036048743914651,0.4659658288147747,0.9989450730104235,4.07190465927124,0.0
660,2,160,-1,-1,-0.899976041609926,0.1929454729244482,0.9036048743914651,0.5533139851675002,0.9989450730104235,1.1679452657699585,1.0
661,2,161,1,1,0.22344113683405142,0.44933871992304386,0.9036048743914651,0.5960652947422147,0.9989450730104235,1.608940839767456,1.0
662,2,162,-1,1,1.192963876546208,0.1929454729244482,0.9036048743914651,0.6329601968146301,0.9989450730104235,1.4049433469772339,1.0
663,2,163,1,-1,-1.4889670546361544,0.44933871992304386,0.9036048743914651,0.530900105784344,0.9989450730104235,1.378943681716919,1.0
664,2,164,-1,1,1.1406702454528956,0.1929454729244482,0.9036048743914651,0.6309701780980277,0.9989450730104235,2.4879586696624756,0.0
665,2,165,-1,-1,-0.2906540179813534,0.1929454729244482,0.9036048743914651,0.5765015551661333,0.9989450730104235,1.5459415912628174,1.0
666,2,166,1,1,0.2434692070037845,0.44933871992304386,0.9036048743914651,0.5968274570488267,0.9989450730104235,1.9709360599517822,1.0
667,2,167,-1,-1,-0.271268973676389,0.1929454729244482,0.9036048743914651,0.577239247313007,0.9989450730104235,1.2969447374343872,1.0
668,2,168,-1,-1,1.0405924385163536,0.1929454729244482,0.9036048743914651,0.6271617466551076,0.9989450730104235,1.3679438829421997,1.0
669,2,169,1,-1,-1.7478893290673956,0.44933871992304386,0.9036048743914651,0.5210468949536792,0.9989450730104235,1.516942024230957,0.0
670,2,170,-1,-1,-1.1567980246844252,0.1929454729244482,0.9036048743914651,0.5435407003053109,0.9989450730104235,1.5379416942596436,0.0
671,2,171,1,1,2.0905145330058827,0.44933871992304386,0.9036048743914651,0.6671162224741658,0.9989450730104235,2.606964111328125,0.0
672,2,172,1,1,1.3237394232036008,0.44933871992304386,0.9036048743914651,0.6379368216938192,0.9989450730104235,1.5449416637420654,1.0
673,2,173,-1,-1,-1.3399262052549799,0.1929454729244482,0.9036048743914651,0.5365718113746024,0.9989450730104235,1.9569363594055176,0.0
674,2,174,1,1,1.0159368281084684,0.44933871992304386,0.9036048743914651,0.6262234846687982,0.9989450730104235,1.2049453258514404,1.0
675,2,175,-1,-1,-1.3052735930072008,0.1929454729244482,0.9036048743914651,0.5378905063191013,0.9989450730104235,1.466942548751831,0.0
676,2,176,1,-1,-2.720659274448069,0.44933871992304386,0.9036048743914651,0.48402842142673086,0.9989450730104235,1.6479402780532837,1.0
677,2,177,1,-1,-0.37064572923763717,0.44933871992304386,0.9036048743914651,0.573457494173524,0.9989450730104235,1.8339378833770752,1.0
678,2,178,-1,-1,-1.6057995478410865,0.1929454729244482,0.9036048743914651,0.5264540796942785,0.9989450730104235,1.7429389953613281,1.0
679,2,179,1,-1,-0.5671684272739728,0.44933871992304386,0.9036048743914651,0.5659788808289725,0.9989450730104235,1.2189452648162842,0.0
680,2,180,1,1,2.5207912034521973,0.44933871992304386,0.9036048743914651,0.6834902743348523,0.9989450730104235,1.2129453420639038,1.0
681,2,181,-1,1,1.724836614923357,0.1929454729244482,0.9036048743914651,0.6532004570928349,0.9989450730104235,1.4239431619644165,1.0
682,2,182,1,1,2.259983947926357,0.44933871992304386,0.9036048743914651,0.6735653311042705,0.9989450730104235,2.2689483165740967,1.0
683,2,183,-1,-1,0.3156624260672163,0.1929454729244482,0.9036048743914651,0.5995747487198075,0.9989450730104235,1.518941879272461,1.0
684,2,184,1,1,0.4184347279323535,0.44933871992304386,0.9036048743914651,0.6034857183729759,0.9989450730104235,1.6229405403137207,1.0
685,2,185,1,-1,-0.7299086100335872,0.44933871992304386,0.9036048743914651,0.5597858511451658,0.9989450730104235,2.6689670085906982,1.0
686,2,186,1,1,2.080060041874752,0.44933871992304386,0.9036048743914651,0.666718379895853,0.9989450730104235,2.0089361667633057,1.0
687,2,187,-1,-1,-0.14677124713321565,0.1929454729244482,0.9036048743914651,0.5819769715982697,0.9989450730104235,1.2409453392028809,0.0
688,2,188,-1,1,-0.19047482569639507,0.1929454729244482,0.9036048743914651,0.5803138447986019,0.9989450730104235,1.2489453554153442,0.0
689,2,189,1,1,1.2070563127047638,0.44933871992304386,0.9036048743914651,0.6334964803186004,0.9989450730104235,1.1129450798034668,1.0
690,2,190,1,1,0.5017065116296024,0.44933871992304386,0.9036048743914651,0.6066546015554555,0.9989450730104235,1.157945156097412,1.0
691,2,191,1,1,-0.2522387129818613,0.44933871992304386,0.9036048743914651,0.5779634382741654,0.9989450730104235,2.327951192855835,1.0
692,2,192,-1,1,-0.16583559305167817,0.1929454729244482,0.9036048743914651,0.5812514835339617,0.9989450730104235,1.2889448404312134,1.0
693,2,193,1,1,1.8785360024440574,0.44933871992304386,0.9036048743914651,0.6590494419787903,0.9989450730104235,1.2139452695846558,1.0
694,2,194,-1,1,-0.9977341293981588,0.1929454729244482,0.9036048743914651,0.5495938299529828,0.9989450730104235,2.6619668006896973,1.0
695,2,195,-1,-1,-0.29762294884093277,0.1929454729244482,0.9036048743914651,0.5762363545565118,0.9989450730104235,1.4149432182312012,1.0
696,2,196,-1,1,3.1644756837872605,0.1929454729244482,0.9036048743914651,0.7079854974943901,0.9989450730104235,1.1189451217651367,1.0
697,2,197,1,1,-0.6406489681357119,0.44933871992304386,0.9036048743914651,0.5631826005064223,0.9989450730104235,1.9109368324279785,1.0
698,2,198,-1,-1,-1.45808604640451,0.1929454729244482,0.9036048743914651,0.532075273449769,0.9989450730104235,1.5529415607452393,1.0
699,2,199,1,1,0.8502230322647011,0.44933871992304386,0.9036048743914651,0.6199172950156094,0.9989450730104235,1.9199367761611938,1.0
700,2,200,1,-1,-2.535197130328067,0.44933871992304386,0.9036048743914651,0.4910861286523285,0.9989450730104235,1.8509376049041748,1.0
701,2,201,-1,1,0.25792072789271026,0.1929454729244482,0.9036048743914651,0.5973774054163633,0.9989450730104235,1.4169431924819946,1.0
702,2,202,1,-1,-1.6327757060632484,0.44933871992304386,0.9036048743914651,0.5254275099449272,0.9989450730104235,1.26394522190094,0.0
703,2,203,1,1,1.815469392633453,0.44933871992304386,0.9036048743914651,0.6566494607326647,0.9989450730104235,1.1489452123641968,1.0
704,2,204,1,-1,-0.6157911174041084,0.44933871992304386,0.9036048743914651,0.5641285586886363,0.9989450730104235,2.1629433631896973,1.0
705,2,205,1,-1,-2.3219617176373055,0.44933871992304386,0.9036048743914651,0.49920073942662807,0.9989450730104235,2.2429471015930176,1.0
706,2,206,-1,1,1.9570919577681973,0.1929454729244482,0.9036048743914651,0.6620388657026214,0.9989450730104235,1.612940788269043,1.0
707,2,207,-1,-1,1.0812892012971198,0.1929454729244482,0.9036048743914651,0.6287104499664983,0.9989450730104235,1.259945273399353,0.0
708,2,208,1,-1,-2.249610661925134,0.44933871992304386,0.9036048743914651,0.5019540375247511,0.9989450730104235,1.3029446601867676,0.0
709,2,209,1,1,0.47425435342792155,0.44933871992304386,0.9036048743914651,0.6056099177671947,0.9989450730104235,2.117941379547119,1.0
710,2,210,1,-1,-0.17095289124673785,0.44933871992304386,0.9036048743914651,0.5810567462595806,0.9989450730104235,1.7369391918182373,1.0
711,2,211,1,-1,-1.514522011657216,0.44933871992304386,0.9036048743914651,0.5299276194277716,0.9989450730104235,3.4019532203674316,1.0
712,2,212,-1,-1,-1.0869460627217737,0.1929454729244482,0.9036048743914651,0.5461988961274565,0.9989450730104235,1.1779452562332153,1.0
713,2,213,1,1,0.6475773917341711,0.44933871992304386,0.9036048743914651,0.6122056748993081,0.9989450730104235,1.2999447584152222,0.0
714,2,214,1,1,1.3088592024413757,0.44933871992304386,0.9036048743914651,0.6373705592789725,0.9989450730104235,2.2379469871520996,1.0
715,2,215,-1,1,0.44225368845682267,0.1929454729244482,0.9036048743914651,0.6043921418945923,0.9989450730104235,1.3329442739486694,1.0
716,2,216,-1,-1,-0.5333270307461027,0.1929454729244482,0.9036048743914651,0.5672667051983733,0.9989450730104235,2.362952709197998,1.0
717,2,217,1,-1,-2.1635555874358428,0.44933871992304386,0.9036048743914651,0.505228838017888,0.9989450730104235,2.2909493446350098,0.0
718,2,218,1,-1,-0.30858925048620867,0.44933871992304386,0.9036048743914651,0.5758190351799501,0.9989450730104235,1.792938470840454,0.0
719,2,219,1,1,0.014273651375177998,0.44933871992304386,0.9036048743914651,0.588105487739617,0.9989450730104235,1.930936574935913,1.0
720,2,220,-1,1,2.575928824502554,0.1929454729244482,0.9036048743914651,0.6855885202509439,0.9989450730104235,1.1119451522827148,1.0
721,2,221,1,1,1.5928610487450885,0.44933871992304386,0.9036048743914651,0.64817816582451,0.9989450730104235,1.2229453325271606,1.0
722,2,222,-1,-1,0.011170007301820606,0.1929454729244482,0.9036048743914651,0.5879873794792702,0.9989450730104235,1.2989447116851807,1.0
723,2,223,1,-1,0.5113999490706598,0.44933871992304386,0.9036048743914651,0.6070234824599292,0.9989450730104235,1.3699438571929932,1.0
724,2,224,-1,1,1.7754610493046785,0.1929454729244482,0.9036048743914651,0.6551269550205935,0.9989450730104235,4.319886684417725,1.0
725,2,225,1,1,0.019057357790039586,0.44933871992304386,0.9036048743914651,0.588287530277136,0.9989450730104235,3.1049747467041016,0.0
726,2,226,-1,1,1.303463594284626,0.1929454729244482,0.9036048743914651,0.637165231001037,0.9989450730104235,3.6009387969970703,1.0
727,2,227,1,-1,-1.414846493971899,0.44933871992304386,0.9036048743914651,0.5337207418718195,0.9989450730104235,1.278944969177246,1.0
728,2,228,-1,-1,-0.11643032865742786,0.1929454729244482,0.9036048743914651,0.5831315863072384,0.9989450730104235,2.2719485759735107,0.0
729,2,229,-1,1,0.32159508325082575,0.1929454729244482,0.9036048743914651,0.5998005142401536,0.9989450730104235,1.2729450464248657,1.0
730,2,230,1,-1,-2.9657618047515077,0.44933871992304386,0.9036048743914651,0.4747011168851877,0.9989450730104235,1.1239451169967651,1.0
731,2,231,-1,-1,-2.009733937176976,0.1929454729244482,0.9036048743914651,0.5110824755763047,0.9989450730104235,2.2289464473724365,1.0
732,2,232,-1,1,1.5668173907903054,0.1929454729244482,0.9036048743914651,0.6471870820979597,0.9989450730104235,1.2179453372955322,1.0
733,2,233,1,-1,-3.5018939005349585,0.44933871992304386,0.9036048743914651,0.45429876801642166,0.9989450730104235,2.2189459800720215,1.0
734,2,234,1,1,1.4288031679612114,0.44933871992304386,0.9036048743914651,0.6419349915308095,0.9989450730104235,3.2959609031677246,1.0
735,2,235,1,1,0.2207050461868859,0.44933871992304386,0.9036048743914651,0.5959611736191575,0.9989450730104235,1.2939448356628418,1.0
736,2,236,-1,1,1.590686488744526,0.1929454729244482,0.9036048743914651,0.6480954135846861,0.9989450730104235,1.8749372959136963,1.0
737,2,237,1,1,0.42608384816282574,0.44933871992304386,0.9036048743914651,0.6037768033886066,0.9989450730104235,2.133942127227783,1.0
738,2,238,1,-1,-2.8262983330629456,0.44933871992304386,0.9036048743914651,0.4800083581904883,0.9989450730104235,1.0909450054168701,0.0
739,2,239,-1,-1,0.4519103725637672,0.1929454729244482,0.9036048743914651,0.6047596241617702,0.9989450730104235,1.7419390678405762,0.0
740,2,240,-1,-1,0.011272312745581603,0.1929454729244482,0.9036048743914651,0.5879912726827757,0.9989450730104235,1.5379416942596436,1.0
741,2,241,1,-1,-0.09432658258477311,0.44933871992304386,0.9036048743914651,0.5839727378484867,0.9989450730104235,1.426943063735962,1.0
742,2,242,-1,1,2.3730478558067,0.1929454729244482,0.9036048743914651,0.6778679447906791,0.9989450730104235,2.2689483165740967,1.0
743,2,243,-1,-1,-1.0460389830590748,0.1929454729244482,0.9036048743914651,0.5477556029857937,0.9989450730104235,1.133945107460022,1.0
744,2,244,-1,1,1.5786467324169204,0.1929454729244482,0.9036048743914651,0.647637244206612,0.9989450730104235,1.4539427757263184,1.0
745,2,245,1,1,0.8878620407398591,0.44933871992304386,0.9036048743914651,0.6213496363882378,0.9989450730104235,1.3729437589645386,0.0
746,2,246,-1,1,1.6500828712421047,0.1929454729244482,0.9036048743914651,0.6503557254122917,0.9989450730104235,1.062945008277893,1.0
747,2,247,-1,-1,-2.7940078585870394,0.1929454729244482,0.9036048743914651,0.4812371626783687,0.9989450730104235,2.378953456878662,1.0
748,2,248,-1,-1,-1.7007004544354902,0.1929454729244482,0.9036048743914651,0.5228426536678775,0.9989450730104235,1.4329429864883423,0.0
749,2,249,1,-1,-0.5636624747594858,0.44933871992304386,0.9036048743914651,0.5661122988184576,0.9989450730104235,2.6869678497314453,0.0
750,2,250,1,1,1.8585793331230622,0.44933871992304386,0.9036048743914651,0.6582899968104302,0.9989450730104235,1.3059446811676025,1.0
751,2,251,-1,-1,-0.8283604587206149,0.1929454729244482,0.9036048743914651,0.5560392950641454,0.9989450730104235,1.2299453020095825,1.0
752,2,252,1,1,-0.8842980236391131,0.44933871992304386,0.9036048743914651,0.5539106075199521,0.9989450730104235,2.366952896118164,0.0
753,2,253,-1,-1,-0.6099488883216445,0.1929454729244482,0.9036048743914651,0.564350882994249,0.9989450730104235,1.9949357509613037,0.0
