,subj_idx,trial_idx,S,X,M,v,a,z,t,rt,response
0,1,0,-1,1,0.7858143069645172,1.1663595849267339,1.8879728686933799,0.5448691850243335,0.9424017083879145,2.89743709564209,1.0
1,1,1,-1,1,-0.6696402494058433,1.1663595849267339,1.8879728686933799,0.5292485402283739,0.9424017083879145,2.2624073028564453,1.0
2,1,2,-1,1,-0.15703420718334304,1.1663595849267339,1.8879728686933799,0.5347500770992941,0.9424017083879145,2.633424758911133,1.0
3,1,3,1,-1,1.0882519438928069,-1.404736690467552,1.8879728686933799,0.5481150925510979,0.9424017083879145,1.7963943481445312,0.0
4,1,4,-1,-1,-2.163206104507732,1.1663595849267339,1.8879728686933799,0.5132188664746965,0.9424017083879145,2.9724369049072266,1.0
5,1,5,-1,1,-0.871788002938609,1.1663595849267339,1.8879728686933799,0.527078992412253,0.9424017083879145,3.2674155235290527,1.0
6,1,6,-1,-1,-1.4404466379868015,1.1663595849267339,1.8879728686933799,0.5209758719064537,0.9424017083879145,1.4103991985321045,1.0
7,1,7,-1,-1,1.9157224771552535,1.1663595849267339,1.8879728686933799,0.556995907979269,0.9424017083879145,2.415414571762085,1.0
8,1,8,1,-1,-1.0618314957274206,-1.404736690467552,1.8879728686933799,0.5250393533980053,0.9424017083879145,2.2664074897766113,0.0
9,1,9,1,-1,0.33817206973250974,-1.404736690467552,1.8879728686933799,0.540064871242866,0.9424017083879145,1.8713933229446411,0.0
10,1,10,-1,-1,-0.9209275558046686,1.1663595849267339,1.8879728686933799,0.5265516028779021,0.9424017083879145,3.113426685333252,1.0
11,1,11,-1,1,0.205151141235966,1.1663595849267339,1.8879728686933799,0.5386372260681137,0.9424017083879145,2.3644120693206787,1.0
12,1,12,-1,-1,0.33377006489250904,1.1663595849267339,1.8879728686933799,0.5400176267901313,0.9424017083879145,1.7443950176239014,1.0
13,1,13,1,-1,-0.6310055452882873,-1.404736690467552,1.8879728686933799,0.5296631866267626,0.9424017083879145,2.8104329109191895,0.0
14,1,14,1,-1,1.074369586406646,-1.404736690467552,1.8879728686933799,0.5479661003518755,0.9424017083879145,2.0313966274261475,0.0
15,1,15,-1,1,0.09745911847639757,1.1663595849267339,1.8879728686933799,0.5374814230047184,0.9424017083879145,3.1694226264953613,1.0
16,1,16,1,-1,-0.7246328672722812,-1.404736690467552,1.8879728686933799,0.5286583327592834,0.9424017083879145,2.412414312362671,0.0
17,1,17,-1,1,2.676039131328135,1.1663595849267339,1.8879728686933799,0.5651559953796652,0.9424017083879145,2.406414031982422,1.0
18,1,18,1,1,0.3406932743499959,-1.404736690467552,1.8879728686933799,0.540091930034647,0.9424017083879145,2.3354108333587646,0.0
19,1,19,1,-1,0.9826612746938992,-1.404736690467552,1.8879728686933799,0.5469818422341405,0.9424017083879145,2.2324059009552,0.0
20,1,20,1,-1,1.0174216402374772,-1.404736690467552,1.8879728686933799,0.5473549073502978,0.9424017083879145,1.595396876335144,0.0
21,1,21,1,1,0.36197061190221724,-1.404736690467552,1.8879728686933799,0.54032028874956,0.9424017083879145,2.5074188709259033,0.0
22,1,22,1,1,0.9543748108248936,-1.404736690467552,1.8879728686933799,0.5466782581732726,0.9424017083879145,1.3973994255065918,0.0
23,1,23,1,-1,-0.36970037304644315,-1.404736690467552,1.8879728686933799,0.5324676405762668,0.9424017083879145,3.3964061737060547,0.0
24,1,24,1,-1,-0.9244147335916574,-1.404736690467552,1.8879728686933799,0.5265141767931697,0.9424017083879145,3.4404029846191406,0.0
25,1,25,1,-1,1.453367101908301,-1.404736690467552,1.8879728686933799,0.5520336856586723,0.9424017083879145,1.6613960266113281,0.0
26,1,26,-1,1,-0.41145449168559456,1.1663595849267339,1.8879728686933799,0.5320195151070272,0.9424017083879145,2.70442795753479,1.0
27,1,27,-1,1,-0.9451799090338173,1.1663595849267339,1.8879728686933799,0.5262913148506323,0.9424017083879145,3.047431468963623,1.0
28,1,28,-1,1,0.3655378560657315,1.1663595849267339,1.8879728686933799,0.5403585741455106,0.9424017083879145,2.0253963470458984,1.0
29,1,29,1,-1,-1.4012297893104328,-1.404736690467552,1.8879728686933799,0.5213967661628283,0.9424017083879145,2.934438705444336,0.0
30,1,30,-1,1,0.09655911263084677,1.1663595849267339,1.8879728686933799,0.5374717637051091,0.9424017083879145,3.643388271331787,1.0
31,1,31,-1,-1,-0.6090288905344078,1.1663595849267339,1.8879728686933799,0.5298990507533416,0.9424017083879145,2.689427375793457,1.0
32,1,32,-1,1,-0.8644570167119783,1.1663595849267339,1.8879728686933799,0.5271576721149954,0.9424017083879145,5.6232452392578125,1.0
33,1,33,1,-1,-0.07106036993748238,-1.404736690467552,1.8879728686933799,0.5356727900534604,0.9424017083879145,2.236406087875366,0.0
34,1,34,-1,-1,0.9063975624143348,1.1663595849267339,1.8879728686933799,0.5461633430545363,0.9424017083879145,1.8883931636810303,1.0
35,1,35,-1,1,1.1000694752694962,1.1663595849267339,1.8879728686933799,0.5482419240342193,0.9424017083879145,2.668426275253296,1.0
36,1,36,1,-1,0.07128758864205105,-1.404736690467552,1.8879728686933799,0.5372005374425276,0.9424017083879145,2.639425039291382,1.0
37,1,37,-1,1,-0.5637158358336518,1.1663595849267339,1.8879728686933799,0.5303853724519494,0.9424017083879145,3.7803783416748047,1.0
38,1,38,1,-1,-1.0458036973475338,-1.404736690467552,1.8879728686933799,0.5252113715103247,0.9424017083879145,2.150402069091797,0.0
39,1,39,1,-1,0.3923529735729381,-1.404736690467552,1.8879728686933799,0.5406463670030125,0.9424017083879145,2.8224334716796875,0.0
40,1,40,1,-1,-0.04502083566134619,-1.404736690467552,1.8879728686933799,0.535952258975248,0.9424017083879145,2.2944087982177734,0.0
41,1,41,1,1,-0.39778348242178097,-1.404736690467552,1.8879728686933799,0.5321662390145361,0.9424017083879145,1.4923982620239258,0.0
42,1,42,1,1,1.9273668157624937,-1.404736690467552,1.8879728686933799,0.5571208806735187,0.9424017083879145,2.5354201793670654,0.0
43,1,43,-1,-1,0.9945412633492952,1.1663595849267339,1.8879728686933799,0.5471093440390946,0.9424017083879145,2.8924367427825928,1.0
44,1,44,1,1,-0.8686937432760984,-1.404736690467552,1.8879728686933799,0.5271122015089459,0.9424017083879145,3.069429874420166,0.0
45,1,45,-1,-1,-0.06837734920617858,1.1663595849267339,1.8879728686933799,0.5357015855343226,0.9424017083879145,1.47739839553833,1.0
46,1,46,1,1,1.876364645060128,-1.404736690467552,1.8879728686933799,0.5565735006204091,0.9424017083879145,2.5214195251464844,0.0
47,1,47,1,-1,-1.429020617854609,-1.404736690467552,1.8879728686933799,0.5210985015008545,0.9424017083879145,3.258416175842285,0.0
48,1,48,-1,-1,0.26327428620120497,1.1663595849267339,1.8879728686933799,0.539261031873628,0.9424017083879145,2.698427677154541,1.0
49,1,49,-1,1,-1.7294034084453316,1.1663595849267339,1.8879728686933799,0.5178746475824345,0.9424017083879145,1.3224003314971924,1.0
50,1,50,1,-1,-0.6030855001734706,-1.404736690467552,1.8879728686933799,0.5299628381036959,0.9424017083879145,2.154402256011963,0.0
51,1,51,-1,1,0.6184183756979605,1.1663595849267339,1.8879728686933799,0.5430726106337701,0.9424017083879145,1.2864007949829102,1.0
52,1,52,-1,-1,0.8645236201513536,1.1663595849267339,1.8879728686933799,0.5457139315800017,0.9424017083879145,3.6163902282714844,1.0
53,1,53,-1,1,1.8807691571241005,1.1663595849267339,1.8879728686933799,0.5566207719818884,0.9424017083879145,1.2964006662368774,1.0
54,1,54,-1,-1,-2.0898158236449484,1.1663595849267339,1.8879728686933799,0.514006526593534,0.9424017083879145,2.7944321632385254,1.0
55,1,55,-1,1,-0.059382539150763566,1.1663595849267339,1.8879728686933799,0.5357981222020377,0.9424017083879145,2.5424203872680664,1.0
56,1,56,1,-1,-0.5133035144631093,-1.404736690467552,1.8879728686933799,0.530926421955709,0.9424017083879145,2.5934228897094727,0.0
57,1,57,-1,1,-1.7694141527960148,1.1663595849267339,1.8879728686933799,0.5174452328523157,0.9424017083879145,2.1144003868103027,1.0
58,1,58,-1,1,-1.875757082262277,1.1663595849267339,1.8879728686933799,0.5163039089130119,0.9424017083879145,3.325411319732666,1.0
59,1,59,1,-1,-0.6204050629898946,-1.404736690467552,1.8879728686933799,0.5297769561484039,0.9424017083879145,2.6264243125915527,0.0
60,1,60,-1,-1,0.14210677657271298,1.1663595849267339,1.8879728686933799,0.5379606033439749,0.9424017083879145,5.849228858947754,1.0
61,1,61,1,1,0.7800739937821883,-1.404736690467552,1.8879728686933799,0.5448075771968364,0.9424017083879145,1.8253939151763916,0.0
62,1,62,-1,-1,0.3411957676358966,1.1663595849267339,1.8879728686933799,0.5400973230365083,0.9424017083879145,2.449416160583496,1.0
63,1,63,1,1,-0.8595313274801598,-1.404736690467552,1.8879728686933799,0.5272105370028264,0.9424017083879145,1.9383924007415771,0.0
64,1,64,1,1,-0.4194050595406481,-1.404736690467552,1.8879728686933799,0.5319341857534954,0.9424017083879145,3.0964279174804688,0.0
65,1,65,-1,1,0.6852312939800063,1.1663595849267339,1.8879728686933799,0.5437896793046518,0.9424017083879145,1.580397129058838,1.0
66,1,66,-1,-1,-1.7558620132645715,1.1663595849267339,1.8879728686933799,0.5175906809921559,0.9424017083879145,3.5903921127319336,1.0
67,1,67,-1,-1,0.2017265820667054,1.1663595849267339,1.8879728686933799,0.5386004720367826,0.9424017083879145,2.0263962745666504,1.0
68,1,68,1,1,0.7991836821786767,-1.404736690467552,1.8879728686933799,0.5450126716488043,0.9424017083879145,2.9924354553222656,0.0
69,1,69,-1,1,0.10399324839120253,1.1663595849267339,1.8879728686933799,0.5375515504587176,0.9424017083879145,1.739395022392273,1.0
70,1,70,1,-1,-1.8920403232074545,-1.404736690467552,1.8879728686933799,0.5161291492670866,0.9424017083879145,1.666395902633667,0.0
71,1,71,-1,-1,0.19072414386908304,1.1663595849267339,1.8879728686933799,0.538482388529316,0.9424017083879145,2.0223960876464844,1.0
72,1,72,1,1,0.2759180455025759,-1.404736690467552,1.8879728686933799,0.5393967308358992,0.9424017083879145,2.2864084243774414,0.0
73,1,73,-1,1,1.2644555231155479,1.1663595849267339,1.8879728686933799,0.5500061948948765,0.9424017083879145,4.260343551635742,1.0
74,1,74,-1,-1,-0.2155025001963396,1.1663595849267339,1.8879728686933799,0.5341225669973918,0.9424017083879145,2.3414111137390137,1.0
75,1,75,1,1,2.90909178759845,-1.404736690467552,1.8879728686933799,0.5676572296136162,0.9424017083879145,1.6613960266113281,0.0
76,1,76,1,-1,0.9314213703316516,-1.404736690467552,1.8879728686933799,0.546431910707994,0.9424017083879145,2.7894320487976074,0.0
77,1,77,-1,-1,-1.1514397293390632,1.1663595849267339,1.8879728686933799,0.5240776343378573,0.9424017083879145,1.9313925504684448,1.0
78,1,78,-1,-1,-0.39575965428790516,1.1663595849267339,1.8879728686933799,0.532187959720462,0.9424017083879145,2.8334341049194336,1.0
79,1,79,1,-1,0.1989321207415517,-1.404736690467552,1.8879728686933799,0.5385704805213725,0.9424017083879145,2.5044186115264893,0.0
80,1,80,-1,-1,-0.6543514180886808,1.1663595849267339,1.8879728686933799,0.5294126273874717,0.9424017083879145,3.710383415222168,1.0
81,1,81,1,-1,-0.038727894974635024,-1.404736690467552,1.8879728686933799,0.5360197978693748,0.9424017083879145,2.187403917312622,0.0
82,1,82,1,-1,0.8002081331733814,-1.404736690467552,1.8879728686933799,0.5450236665541616,0.9424017083879145,2.138401508331299,0.0
83,1,83,-1,-1,-0.6124569389651119,1.1663595849267339,1.8879728686933799,0.529862259273563,0.9424017083879145,1.530397653579712,1.0
84,1,84,1,-1,0.16893903232088509,-1.404736690467552,1.8879728686933799,0.538248580137398,0.9424017083879145,5.80623197555542,0.0
85,1,85,1,1,0.5398121291159402,-1.404736690467552,1.8879728686933799,0.5422289702389346,0.9424017083879145,3.179421901702881,0.0
86,1,86,1,1,0.03397350120515123,-1.404736690467552,1.8879728686933799,0.5368000645434006,0.9424017083879145,2.5224194526672363,0.0
87,1,87,-1,-1,0.07757754927197798,1.1663595849267339,1.8879728686933799,0.5372680443532385,0.9424017083879145,1.6283965110778809,1.0
88,1,88,-1,1,-0.20993776548577886,1.1663595849267339,1.8879728686933799,0.5341822904315018,0.9424017083879145,2.181403636932373,1.0
89,1,89,1,1,-0.7717911399365049,-1.404736690467552,1.8879728686933799,0.5281522072857985,0.9424017083879145,4.708311080932617,0.0
90,1,90,1,-1,-0.2804397731606008,-1.404736690467552,1.8879728686933799,0.5334256286625236,0.9424017083879145,1.9713938236236572,0.0
91,1,91,-1,-1,-0.4306808064267393,1.1663595849267339,1.8879728686933799,0.5318131689645164,0.9424017083879145,1.4563987255096436,1.0
92,1,92,1,-1,-0.847091245975645,-1.404736690467552,1.8879728686933799,0.5273440499961137,0.9424017083879145,1.5653972625732422,0.0
93,1,93,-1,-1,1.3932440083403388,1.1663595849267339,1.8879728686933799,0.5513884154339519,0.9424017083879145,1.3084005117416382,1.0
94,1,94,-1,-1,0.986605331758655,1.1663595849267339,1.8879728686933799,0.5470241717690572,0.9424017083879145,1.337400197982788,1.0
95,1,95,1,-1,-1.756951005552185,-1.404736690467552,1.8879728686933799,0.5175789933983139,0.9424017083879145,1.896393060684204,0.0
96,1,96,1,1,1.7173016155523846,-1.404736690467552,1.8879728686933799,0.5548663589764227,0.9424017083879145,3.924367904663086,0.0
97,1,97,-1,-1,-1.7023565550436661,1.1663595849267339,1.8879728686933799,0.5181649275420435,0.9424017083879145,4.432331085205078,1.0
98,1,98,-1,1,-0.030629749801116643,1.1663595849267339,1.8879728686933799,0.5361067110943244,0.9424017083879145,1.3314002752304077,1.0
99,1,99,-1,1,-0.11187818195956246,1.1663595849267339,1.8879728686933799,0.5352347134813307,0.9424017083879145,2.0673983097076416,1.0
100,1,100,1,-1,-1.303362725123615,-1.404736690467552,1.8879728686933799,0.5224471230016553,0.9424017083879145,1.8823931217193604,0.0
101,1,101,1,-1,-1.3789895621833645,-1.404736690467552,1.8879728686933799,0.5216354590760579,0.9424017083879145,2.0483973026275635,0.0
102,1,102,-1,-1,-1.0598850234724257,1.1663595849267339,1.8879728686933799,0.5250602438830895,0.9424017083879145,2.187403917312622,1.0
103,1,103,-1,1,-2.2675518241804764,1.1663595849267339,1.8879728686933799,0.5120989775603689,0.9424017083879145,4.401333332061768,1.0
104,1,104,1,1,0.06173253310252334,-1.404736690467552,1.8879728686933799,0.5370979879483264,0.9424017083879145,1.8463935852050781,0.0
105,1,105,-1,-1,-0.11781522279147505,1.1663595849267339,1.8879728686933799,0.535170994277204,0.9424017083879145,2.129401206970215,1.0
106,1,106,-1,-1,-1.6546827709607979,1.1663595849267339,1.8879728686933799,0.5186765857343094,0.9424017083879145,4.373335361480713,1.0
107,1,107,-1,-1,0.24999817003879832,1.1663595849267339,1.8879728686933799,0.5391185461505698,0.9424017083879145,1.5933969020843506,1.0
108,1,108,-1,1,0.8568956428818321,1.1663595849267339,1.8879728686933799,0.5456320644252236,0.9424017083879145,1.4533987045288086,1.0
109,1,109,-1,1,-2.8330776157809097,1.1663595849267339,1.8879728686933799,0.5060294802511749,0.9424017083879145,2.5554211139678955,1.0
110,1,110,-1,1,0.002745568900944434,1.1663595849267339,1.8879728686933799,0.5364649112154584,0.9424017083879145,2.0823988914489746,1.0
111,1,111,-1,-1,1.2622848358317162,1.1663595849267339,1.8879728686933799,0.5499828980252659,0.9424017083879145,2.422414779663086,1.0
112,1,112,1,1,0.09633726635302947,-1.404736690467552,1.8879728686933799,0.5374693827431685,0.9424017083879145,3.83937406539917,0.0
113,1,113,-1,-1,-0.699262494934108,1.1663595849267339,1.8879728686933799,0.5289306199103327,0.9424017083879145,1.7803945541381836,1.0
114,1,114,-1,-1,0.7820586899352427,1.1663595849267339,1.8879728686933799,0.5448288779193489,0.9424017083879145,1.3593999147415161,1.0
115,1,115,1,1,-0.7607009040773902,-1.404736690467552,1.8879728686933799,0.5282712330803864,0.9424017083879145,1.7853944301605225,0.0
116,1,116,1,1,-0.11836682066851183,-1.404736690467552,1.8879728686933799,0.5351650742610348,0.9424017083879145,1.4323989152908325,0.0
117,1,117,1,-1,1.1058145216177035,-1.404736690467552,1.8879728686933799,0.5483035826603502,0.9424017083879145,2.2984089851379395,0.0
118,1,118,1,-1,-2.069600323384299,-1.404736690467552,1.8879728686933799,0.5142234891552039,0.9424017083879145,1.8893930912017822,0.0
119,1,119,-1,-1,0.5707493043724329,1.1663595849267339,1.8879728686933799,0.5425610030211035,0.9424017083879145,2.9794363975524902,1.0
120,1,120,1,1,1.2695287415064933,-1.404736690467552,1.8879728686933799,0.5500606431372557,0.9424017083879145,2.0763986110687256,0.0
121,1,121,1,1,1.943261750418448,-1.404736690467552,1.8879728686933799,0.5572914728278591,0.9424017083879145,2.72442889213562,0.0
122,1,122,1,1,0.2091235634052554,-1.404736690467552,1.8879728686933799,0.538679860031101,0.9424017083879145,2.3044092655181885,0.0
123,1,123,-1,1,0.2755086901480972,1.1663595849267339,1.8879728686933799,0.5393923374355284,0.9424017083879145,2.151402235031128,1.0
124,1,124,-1,-1,0.450473624861489,1.1663595849267339,1.8879728686933799,0.5412701460451781,0.9424017083879145,1.4013993740081787,1.0
125,1,125,1,1,0.518792677903546,-1.404736690467552,1.8879728686933799,0.5420033792854021,0.9424017083879145,2.140401601791382,0.0
126,1,126,-1,1,-0.9247317008585694,1.1663595849267339,1.8879728686933799,0.5265107749466011,0.9424017083879145,1.5843970775604248,1.0
127,1,127,1,1,0.04780865413763748,-1.404736690467552,1.8879728686933799,0.5369485501204393,0.9424017083879145,2.723428964614868,0.0
128,1,128,1,-1,0.39866816991209864,-1.404736690467552,1.8879728686933799,0.5407141447556046,0.9424017083879145,1.9363925457000732,0.0
129,1,129,-1,-1,1.0297381603314384,1.1663595849267339,1.8879728686933799,0.5474870942225487,0.9424017083879145,1.8323938846588135,1.0
130,1,130,-1,-1,-0.3303920416015663,1.1663595849267339,1.8879728686933799,0.53288951667012,0.9424017083879145,1.7903943061828613,1.0
131,1,131,-1,1,0.7515795159864147,1.1663595849267339,1.8879728686933799,0.5445017606295337,0.9424017083879145,7.549105644226074,1.0
132,1,132,-1,1,-0.17978658911554773,1.1663595849267339,1.8879728686933799,0.5345058874920889,0.9424017083879145,2.0503973960876465,1.0
133,1,133,-1,1,-2.035088363836444,1.1663595849267339,1.8879728686933799,0.5145938882576355,0.9424017083879145,3.1044273376464844,1.0
134,1,134,-1,-1,0.5410340204548056,1.1663595849267339,1.8879728686933799,0.5422420841699056,0.9424017083879145,2.434415340423584,0.0
135,1,135,1,1,-2.165773558039212,-1.404736690467552,1.8879728686933799,0.5131913113171206,0.9424017083879145,1.761394739151001,0.0
136,1,136,1,-1,-0.36130555920630675,-1.404736690467552,1.8879728686933799,0.5325577377933535,0.9424017083879145,1.7993942499160767,0.0
137,1,137,1,-1,-0.9882246320038789,-1.404736690467552,1.8879728686933799,0.5258293379892367,0.9424017083879145,1.6753958463668823,0.0
138,1,138,-1,-1,0.051399651460457704,1.1663595849267339,1.8879728686933799,0.5369870904468256,0.9424017083879145,2.457416534423828,1.0
139,1,139,1,-1,-1.856734305342866,-1.404736690467552,1.8879728686933799,0.5165080705888199,0.9424017083879145,2.939439058303833,0.0
140,1,140,1,-1,-0.10496456002007576,-1.404736690467552,1.8879728686933799,0.5353089138279493,0.9424017083879145,7.026143550872803,0.0
141,1,141,-1,-1,-2.0779097259688553,1.1663595849267339,1.8879728686933799,0.514134308613172,0.9424017083879145,2.2974090576171875,1.0
142,1,142,-1,1,0.9200223944979465,1.1663595849267339,1.8879728686933799,0.5463095713661322,0.9424017083879145,2.7794315814971924,1.0
143,1,143,-1,1,0.14806860581458745,1.1663595849267339,1.8879728686933799,0.5380245885893499,0.9424017083879145,1.901392936706543,1.0
144,1,144,-1,-1,0.7525637456105291,1.1663595849267339,1.8879728686933799,0.5445123238596179,0.9424017083879145,2.401413917541504,1.0
145,1,145,1,1,-0.697988025444665,-1.404736690467552,1.8879728686933799,0.5289442981355379,0.9424017083879145,2.2954089641571045,0.0
146,1,146,-1,1,1.139825154087606,1.1663595849267339,1.8879728686933799,0.5486686012772304,0.9424017083879145,2.0823988914489746,1.0
147,1,147,-1,-1,-1.2944048281971603,1.1663595849267339,1.8879728686933799,0.5225432634997523,0.9424017083879145,2.171403169631958,1.0
148,1,148,1,-1,-1.1000072531316736,-1.404736690467552,1.8879728686933799,0.5246296326385227,0.9424017083879145,1.4473987817764282,0.0
149,1,149,1,-1,0.3852939180348628,-1.404736690467552,1.8879728686933799,0.5405706057924184,0.9424017083879145,2.163402795791626,0.0
150,1,150,1,1,-0.8444827187399254,-1.404736690467552,1.8879728686933799,0.5273720459766212,0.9424017083879145,1.5933969020843506,0.0
151,1,151,-1,-1,0.09968072149105021,1.1663595849267339,1.8879728686933799,0.5375052663266673,0.9424017083879145,1.9553930759429932,1.0
152,1,152,1,1,-0.49636251778166174,-1.404736690467552,1.8879728686933799,0.5311082409554794,0.9424017083879145,4.8503007888793945,0.0
153,1,153,-1,1,-0.8014599582680586,1.1663595849267339,1.8879728686933799,0.5278337871258253,0.9424017083879145,1.8873931169509888,1.0
154,1,154,-1,-1,-0.5985288429951676,1.1663595849267339,1.8879728686933799,0.5300117423603954,0.9424017083879145,1.7673946619033813,1.0
155,1,155,1,1,0.8255316325476679,-1.404736690467552,1.8879728686933799,0.5452954506418097,0.9424017083879145,2.0523974895477295,0.0
156,1,156,-1,1,-1.335255479415358,1.1663595849267339,1.8879728686933799,0.5221048344814294,0.9424017083879145,2.2534070014953613,1.0
157,1,157,-1,-1,0.4946678527445094,1.1663595849267339,1.8879728686933799,0.5417444599512845,0.9424017083879145,2.454416275024414,1.0
158,1,158,1,1,-0.9905727836704659,-1.404736690467552,1.8879728686933799,0.5258041364857269,0.9424017083879145,1.3783996105194092,0.0
159,1,159,1,1,0.7982021750525296,-1.404736690467552,1.8879728686933799,0.5450021376378898,0.9424017083879145,1.647396206855774,0.0
160,1,160,1,1,-0.46650196230606855,-1.404736690467552,1.8879728686933799,0.5314287189315541,0.9424017083879145,1.8263938426971436,0.0
161,1,161,1,-1,0.3396126413249289,-1.404736690467552,1.8879728686933799,0.5400803321564683,0.9424017083879145,1.4833983182907104,0.0
162,1,162,1,1,0.4532499965893853,-1.404736690467552,1.8879728686933799,0.5412999434142496,0.9424017083879145,3.818375587463379,0.0
163,1,163,-1,-1,-0.7319439269305971,1.1663595849267339,1.8879728686933799,0.5285798669181448,0.9424017083879145,3.7683792114257812,1.0
164,1,164,1,-1,0.21788119158417302,-1.404736690467552,1.8879728686933799,0.5387738511477863,0.9424017083879145,1.5633972883224487,0.0
165,1,165,-1,1,1.288279042882327,1.1663595849267339,1.8879728686933799,0.5502618804732667,0.9424017083879145,1.6753958463668823,1.0
166,1,166,-1,1,-0.5251835424855831,1.1663595849267339,1.8879728686933799,0.5307989197282483,0.9424017083879145,2.2674076557159424,1.0
167,1,167,-1,1,-0.8431248913333186,1.1663595849267339,1.8879728686933799,0.5273866188394565,0.9424017083879145,2.0463972091674805,1.0
168,1,168,1,1,1.7468396602510212,-1.404736690467552,1.8879728686933799,0.5551833756102881,0.9424017083879145,3.050431251525879,0.0
169,1,169,-1,1,0.06333950731284844,1.1663595849267339,1.8879728686933799,0.5371152347755982,0.9424017083879145,1.5423974990844727,1.0
170,1,170,1,-1,-0.05756745319677282,-1.404736690467552,1.8879728686933799,0.5358176025855628,0.9424017083879145,3.4464025497436523,0.0
171,1,171,1,-1,-0.07273573007903003,-1.404736690467552,1.8879728686933799,0.5356548092751792,0.9424017083879145,2.2654075622558594,0.0
172,1,172,-1,-1,-0.26276746326536704,1.1663595849267339,1.8879728686933799,0.5336152964706935,0.9424017083879145,1.6563961505889893,1.0
173,1,173,-1,1,-1.3054983616559,1.1663595849267339,1.8879728686933799,0.5224242023137246,0.9424017083879145,3.8653721809387207,1.0
174,1,174,-1,-1,-0.1979457789292351,1.1663595849267339,1.8879728686933799,0.5343109942522963,0.9424017083879145,3.988363265991211,1.0
175,1,175,-1,1,-1.601180656437342,1.1663595849267339,1.8879728686933799,0.5192507963980129,0.9424017083879145,3.3314108848571777,1.0
176,1,176,-1,-1,-0.9328250847243661,1.1663595849267339,1.8879728686933799,0.5264239128223173,0.9424017083879145,3.434403419494629,1.0
177,1,177,-1,1,1.0435439406016196,1.1663595849267339,1.8879728686933799,0.5476352645579177,0.9424017083879145,1.364399790763855,1.0
178,1,178,-1,-1,0.09595626140206952,1.1663595849267339,1.8879728686933799,0.5374652936130898,0.9424017083879145,1.6403963565826416,1.0
179,1,179,1,-1,-1.6711189630871364,-1.404736690467552,1.8879728686933799,0.5185001845420634,0.9424017083879145,2.2754080295562744,0.0
180,1,180,1,-1,-0.9755510449268351,-1.404736690467552,1.8879728686933799,0.5259653570776752,0.9424017083879145,1.4723985195159912,0.0
181,1,181,1,1,0.16288909267409196,-1.404736690467552,1.8879728686933799,0.5381836492483874,0.9424017083879145,1.8903930187225342,0.0
182,1,182,-1,1,0.3884802850854515,1.1663595849267339,1.8879728686933799,0.5406048034303103,0.9424017083879145,3.028432846069336,1.0
183,1,183,1,-1,1.331001848639486,-1.404736690467552,1.8879728686933799,0.5507204023628706,0.9424017083879145,2.130401134490967,0.0
184,1,184,1,1,0.5284785411123832,-1.404736690467552,1.8879728686933799,0.5421073326710062,0.9424017083879145,2.6184239387512207,0.0
185,1,185,-1,1,-1.2498464977207249,1.1663595849267339,1.8879728686933799,0.5230214851316315,0.9424017083879145,2.416414499282837,1.0
186,1,186,1,-1,-1.1868949339922001,-1.404736690467552,1.8879728686933799,0.523697111871092,0.9424017083879145,2.3474113941192627,0.0
187,1,187,1,1,1.1378860021242656,-1.404736690467552,1.8879728686933799,0.5486477893570697,0.9424017083879145,2.17240309715271,0.0
188,1,188,-1,-1,-1.3758905420156091,1.1663595849267339,1.8879728686933799,0.5216687192648038,0.9424017083879145,1.6493961811065674,1.0
189,1,189,-1,1,0.47606686632278017,1.1663595849267339,1.8879728686933799,0.5415448251358403,0.9424017083879145,1.9313925504684448,1.0
190,1,190,1,1,-1.7632203814936993,-1.404736690467552,1.8879728686933799,0.5175117074124711,0.9424017083879145,4.928295135498047,0.0
191,1,191,-1,-1,0.7892226248424942,1.1663595849267339,1.8879728686933799,0.5449057647462426,0.9424017083879145,3.6753859519958496,1.0
192,1,192,-1,1,-1.1938106344555128,1.1663595849267339,1.8879728686933799,0.5236228892167468,0.9424017083879145,2.3504114151000977,1.0
193,1,193,1,-1,0.6422660079083241,-1.404736690467552,1.8879728686933799,0.5433285549986094,0.9424017083879145,2.149402141571045,0.0
194,1,194,-1,-1,-0.8404665623486095,1.1663595849267339,1.8879728686933799,0.5274151493165086,0.9424017083879145,1.9453926086425781,1.0
195,1,195,1,-1,-1.2883938253507004,-1.404736690467552,1.8879728686933799,0.5226077765001212,0.9424017083879145,1.735395073890686,0.0
196,1,196,-1,-1,0.2854279542763405,1.1663595849267339,1.8879728686933799,0.5394987957930953,0.9424017083879145,1.670395851135254,1.0
197,1,197,-1,-1,-1.3175710138972365,1.1663595849267339,1.8879728686933799,0.5222946327496446,0.9424017083879145,2.0183959007263184,1.0
198,1,198,-1,-1,-0.06063932972581994,1.1663595849267339,1.8879728686933799,0.5357846337155233,0.9424017083879145,1.5023980140686035,1.0
199,1,199,-1,-1,-0.7441901568766086,1.1663595849267339,1.8879728686933799,0.5284484344338813,0.9424017083879145,2.471417188644409,1.0
200,1,200,1,-1,-0.026040118163434156,-1.404736690467552,1.8879728686933799,0.5361559692489282,0.9424017083879145,2.3284103870391846,0.0
201,1,201,1,-1,0.3027679147301019,-1.404736690467552,1.8879728686933799,0.5396848966657325,0.9424017083879145,3.1284255981445312,0.0
202,1,202,1,1,-0.6170379771034169,-1.404736690467552,1.8879728686933799,0.5298130933485659,0.9424017083879145,1.484398365020752,0.0
203,1,203,1,-1,0.11574469033365643,-1.404736690467552,1.8879728686933799,0.5376776726379502,0.9424017083879145,2.5794222354888916,0.0
204,1,204,-1,1,-1.1893955767824418,1.1663595849267339,1.8879728686933799,0.5236702737588219,0.9424017083879145,3.1464242935180664,1.0
205,1,205,1,1,-1.2710525946996452,-1.404736690467552,1.8879728686933799,0.5227938910051323,0.9424017083879145,1.7693946361541748,0.0
206,1,206,-1,-1,-0.8883488089091335,1.1663595849267339,1.8879728686933799,0.526901253803742,0.9424017083879145,2.2874085903167725,1.0
207,1,207,-1,1,2.0207836965038593,1.1663595849267339,1.8879728686933799,0.558123475983431,0.9424017083879145,2.633424758911133,1.0
208,1,208,-1,-1,-0.09145469180996242,1.1663595849267339,1.8879728686933799,0.5354539082914499,0.9424017083879145,2.0913994312286377,1.0
209,1,209,1,-1,0.9508393420922812,-1.404736690467552,1.8879728686933799,0.5466403138066708,0.9424017083879145,2.1124002933502197,0.0
210,1,210,-1,1,-0.12250627348454794,1.1663595849267339,1.8879728686933799,0.5351206476440676,0.9424017083879145,2.204404592514038,1.0
211,1,211,1,1,0.1863310400151178,-1.404736690467552,1.8879728686933799,0.5384352396062843,0.9424017083879145,3.193420886993408,0.0
212,1,212,1,1,-0.8766717487989605,-1.404736690467552,1.8879728686933799,0.5270265776810446,0.9424017083879145,1.8663933277130127,0.0
213,1,213,1,1,-0.3183673802969829,-1.404736690467552,1.8879728686933799,0.5330185711721712,0.9424017083879145,2.4874179363250732,0.0
214,1,214,-1,1,0.45420063196322824,1.1663595849267339,1.8879728686933799,0.5413101460945328,0.9424017083879145,2.3684122562408447,1.0
215,1,215,-1,1,1.0864822890812096,1.1663595849267339,1.8879728686933799,0.5480960997566459,0.9424017083879145,4.582320213317871,1.0
216,1,216,1,-1,-1.8428685113589514,-1.404736690467552,1.8879728686933799,0.516656885020496,0.9424017083879145,4.13135290145874,0.0
217,1,217,1,1,0.30224066326766064,-1.404736690467552,1.8879728686933799,0.5396792379471027,0.9424017083879145,1.4663984775543213,0.0
218,1,218,1,1,-1.0298231482757205,-1.404736690467552,1.8879728686933799,0.5253828825201344,0.9424017083879145,3.41440486907959,0.0
219,1,219,-1,-1,0.39070629011007074,1.1663595849267339,1.8879728686933799,0.5406286939967669,0.9424017083879145,3.1074271202087402,1.0
220,1,220,-1,-1,0.09239365645304344,1.1663595849267339,1.8879728686933799,0.5374270580074411,0.9424017083879145,2.484417676925659,1.0
221,1,221,1,-1,0.44466281923450635,-1.404736690467552,1.8879728686933799,0.541207781658547,0.9424017083879145,2.38541316986084,0.0
222,1,222,-1,1,-0.6192652904785602,1.1663595849267339,1.8879728686933799,0.5297891887402564,0.9424017083879145,2.3064093589782715,1.0
223,1,223,-1,1,-0.25418334345499355,1.1663595849267339,1.8879728686933799,0.5337074254113443,0.9424017083879145,2.210404872894287,1.0
224,1,224,1,1,1.284127145921487,-1.404736690467552,1.8879728686933799,0.550217320299697,0.9424017083879145,1.8293938636779785,0.0
225,1,225,-1,1,-0.411326261972641,1.1663595849267339,1.8879728686933799,0.532020891330551,0.9424017083879145,1.33840012550354,1.0
226,1,226,-1,-1,0.863606922886076,1.1663595849267339,1.8879728686933799,0.5457040931399737,0.9424017083879145,2.0423970222473145,1.0
227,1,227,-1,1,0.8247209144746293,1.1663595849267339,1.8879728686933799,0.5452867496219165,0.9424017083879145,2.5604212284088135,1.0
228,1,228,-1,1,-0.536632306002491,1.1663595849267339,1.8879728686933799,0.5306760460408029,0.9424017083879145,2.6034233570098877,1.0
229,1,229,1,-1,1.2691917820567682,-1.404736690467552,1.8879728686933799,0.5500570267248767,0.9424017083879145,2.460416555404663,0.0
230,1,230,1,1,0.2575541840698933,-1.404736690467552,1.8879728686933799,0.5391996409609411,0.9424017083879145,2.41841459274292,0.0
231,1,231,-1,1,-0.8811796778633406,1.1663595849267339,1.8879728686933799,0.5269781963981169,0.9424017083879145,2.234405994415283,1.0
232,1,232,1,1,-1.188045148621822,-1.404736690467552,1.8879728686933799,0.5236847672093574,0.9424017083879145,3.385406970977783,0.0
233,1,233,-1,1,-0.2685860990429174,1.1663595849267339,1.8879728686933799,0.5335528480470857,0.9424017083879145,1.8113940954208374,1.0
234,1,234,1,-1,-0.02841585101670456,-1.404736690467552,1.8879728686933799,0.5361304717307346,0.9424017083879145,5.889225959777832,0.0
235,1,235,-1,-1,-1.4893497536577136,1.1663595849267339,1.8879728686933799,0.520451019930851,0.9424017083879145,3.093428134918213,1.0
236,1,236,-1,-1,-0.18024251991790952,1.1663595849267339,1.8879728686933799,0.5345009942214032,0.9424017083879145,3.54239559173584,1.0
237,1,237,1,1,2.281312512348317,-1.404736690467552,1.8879728686933799,0.5609195976992248,0.9424017083879145,2.40541410446167,0.0
238,1,238,-1,-1,1.4105284986648314,1.1663595849267339,1.8879728686933799,0.5515739209742359,0.9424017083879145,1.482398271560669,1.0
239,1,239,-1,-1,0.5335502339503455,1.1663595849267339,1.8879728686933799,0.5421617645404103,0.9424017083879145,1.9763939380645752,1.0
240,1,240,1,-1,-0.3300165274200255,-1.404736690467552,1.8879728686933799,0.5328935468705959,0.9424017083879145,1.4453988075256348,0.0
241,1,241,-1,1,1.0304068347042366,1.1663595849267339,1.8879728686933799,0.5474942707605011,0.9424017083879145,1.455398678779602,1.0
242,1,242,-1,1,2.1529421307411525,1.1663595849267339,1.8879728686933799,0.5595418644511267,0.9424017083879145,1.6363964080810547,1.0
243,1,243,-1,-1,-0.3715421639818764,1.1663595849267339,1.8879728686933799,0.532447873581918,0.9424017083879145,2.0453972816467285,1.0
244,1,244,1,-1,1.2493682091346032,-1.404736690467552,1.8879728686933799,0.5498442705176502,0.9424017083879145,1.482398271560669,0.0
245,1,245,-1,1,1.804690226549716,1.1663595849267339,1.8879728686933799,0.5558042559692398,0.9424017083879145,1.7843945026397705,1.0
246,1,246,1,1,2.066039053848992,-1.404736690467552,1.8879728686933799,0.5586091784460111,0.9424017083879145,1.3723996877670288,0.0
247,1,247,-1,-1,-1.0979841375856334,1.1663595849267339,1.8879728686933799,0.52465134569661,0.9424017083879145,1.7263951301574707,1.0
248,1,248,-1,-1,-0.3114637465835748,1.1663595849267339,1.8879728686933799,0.5330926643202991,0.9424017083879145,2.8804361820220947,1.0
249,1,249,-1,1,-0.14944635564626468,1.1663595849267339,1.8879728686933799,0.5348315136052341,0.9424017083879145,1.5233978033065796,1.0
250,1,250,-1,-1,0.4468783317969549,1.1663595849267339,1.8879728686933799,0.5412315596148064,0.9424017083879145,2.5464205741882324,1.0
251,1,251,1,1,0.24768844898323839,-1.404736690467552,1.8879728686933799,0.5390937571030322,0.9424017083879145,3.176422119140625,0.0
252,1,252,-1,1,0.2118560420795998,1.1663595849267339,1.8879728686933799,0.5387091863186156,0.9424017083879145,1.7693946361541748,1.0
253,1,253,1,1,-1.1797699216110582,-1.404736690467552,1.8879728686933799,0.5237735809625422,0.9424017083879145,2.6044232845306396,0.0
254,1,254,-1,1,-0.7189354096710073,1.1663595849267339,1.8879728686933799,0.528719480639882,0.9424017083879145,1.297400712966919,1.0
255,1,255,-1,-1,-1.359022302188926,1.1663595849267339,1.8879728686933799,0.5218497574026917,0.9424017083879145,1.850393533706665,1.0
256,1,256,1,1,-0.529914716484769,-1.404736690467552,1.8879728686933799,0.5307481424723143,0.9424017083879145,2.3044092655181885,0.0
257,1,257,1,1,-0.1677589030128377,-1.404736690467552,1.8879728686933799,0.534634974457742,0.9424017083879145,1.5393975973129272,0.0
258,1,258,1,1,-0.05080586873464675,-1.404736690467552,1.8879728686933799,0.5358901711921733,0.9424017083879145,3.730381965637207,0.0
259,1,259,1,1,0.322461934349701,-1.404736690467552,1.8879728686933799,0.539896262444029,0.9424017083879145,1.4103991985321045,0.0
260,1,260,-1,-1,0.502677004815907,1.1663595849267339,1.8879728686933799,0.5418304180590636,0.9424017083879145,2.3064093589782715,1.0
261,1,261,-1,1,1.0581212809913412,1.1663595849267339,1.8879728686933799,0.547791715651015,0.9424017083879145,1.9973950386047363,1.0
262,1,262,1,1,-1.5179069390325948,-1.404736690467552,1.8879728686933799,0.5201445303553702,0.9424017083879145,3.3104124069213867,0.0
263,1,263,-1,-1,-0.027726376983671044,1.1663595849267339,1.8879728686933799,0.536137871500737,0.9424017083879145,1.9333925247192383,1.0
264,1,264,1,-1,-1.9117373145326926,-1.404736690467552,1.8879728686933799,0.5159177515950027,0.9424017083879145,2.147402048110962,0.0
265,1,265,1,-1,1.06862520342353,-1.404736690467552,1.8879728686933799,0.5479044488453009,0.9424017083879145,1.5843970775604248,0.0
266,1,266,-1,-1,-2.2930807919077307,1.1663595849267339,1.8879728686933799,0.5118249882866197,0.9424017083879145,2.3414111137390137,1.0
267,1,267,1,-1,-0.640826658962986,-1.404736690467552,1.8879728686933799,0.5295577816675066,0.9424017083879145,2.177403450012207,0.0
268,1,268,1,1,-0.005129940227486668,-1.404736690467552,1.8879728686933799,0.5363803874286152,0.9424017083879145,1.5023980140686035,0.0
269,1,269,1,1,2.2670464536492676,-1.404736690467552,1.8879728686933799,0.560766487432332,0.9424017083879145,1.5833970308303833,0.0
270,1,270,1,1,-0.5836313008452292,-1.404736690467552,1.8879728686933799,0.5301716300142136,0.9424017083879145,1.408399224281311,0.0
271,1,271,1,1,0.4699335399081948,-1.404736690467552,1.8879728686933799,0.5414789992995608,0.9424017083879145,1.9103927612304688,0.0
272,1,272,1,1,-0.24764808697048418,-1.404736690467552,1.8879728686933799,0.5337775649562365,0.9424017083879145,1.6613960266113281,0.0
273,1,273,1,1,0.8083751338862185,-1.404736690467552,1.8879728686933799,0.5451113187701825,0.9424017083879145,1.6603960990905762,0.0
274,1,274,-1,1,-1.6539275733152707,1.1663595849267339,1.8879728686933799,0.5186846908820242,0.9424017083879145,3.330410957336426,1.0
275,1,275,1,1,-0.37102753802925204,-1.404736690467552,1.8879728686933799,0.5324533967974479,0.9424017083879145,2.0483973026275635,0.0
276,1,276,-1,1,-0.30849042678312916,1.1663595849267339,1.8879728686933799,0.5331245754316865,0.9424017083879145,1.576397180557251,1.0
277,1,277,-1,1,-1.083803583269897,1.1663595849267339,1.8879728686933799,0.5248035382889561,0.9424017083879145,4.401333332061768,1.0
278,1,278,1,-1,-0.7538056413962475,-1.404736690467552,1.8879728686933799,0.5283452363865326,0.9424017083879145,2.8074328899383545,0.0
279,1,279,1,1,0.5272748056154025,-1.404736690467552,1.8879728686933799,0.5420944135973433,0.9424017083879145,1.5443975925445557,0.0
280,1,280,-1,1,-0.288462872016743,1.1663595849267339,1.8879728686933799,0.5333395208710807,0.9424017083879145,2.713428497314453,1.0
281,1,281,1,1,-0.08341338338805011,-1.404736690467552,1.8879728686933799,0.5355402115167919,0.9424017083879145,1.954392910003662,0.0
282,1,282,-1,-1,-0.6123557801922821,1.1663595849267339,1.8879728686933799,0.5298633449586169,0.9424017083879145,1.8853931427001953,1.0
283,1,283,1,-1,-0.3612863292344661,-1.404736690467552,1.8879728686933799,0.5325579441787457,0.9424017083879145,1.8903930187225342,0.0
284,1,284,1,1,-2.2532128695786864,-1.404736690467552,1.8879728686933799,0.5122528701814746,0.9424017083879145,2.7674310207366943,0.0
285,1,285,-1,-1,-1.671691113733815,1.1663595849267339,1.8879728686933799,0.5184940439435937,0.9424017083879145,2.2734079360961914,1.0
286,1,286,-1,-1,-0.20375378282649043,1.1663595849267339,1.8879728686933799,0.5342486599351887,0.9424017083879145,1.8263938426971436,1.0
287,1,287,1,-1,-0.2836977645133447,-1.404736690467552,1.8879728686933799,0.5333906623178537,0.9424017083879145,1.4133992195129395,0.0
288,1,288,-1,-1,0.7602829753998606,1.1663595849267339,1.8879728686933799,0.5445951703807337,0.9424017083879145,1.94639253616333,1.0
289,1,289,1,1,-1.6262625466824239,-1.404736690467552,1.8879728686933799,0.5189816053768197,0.9424017083879145,1.802394151687622,0.0
290,1,290,-1,-1,1.4895486486890157,1.1663595849267339,1.8879728686933799,0.5524220035817268,0.9424017083879145,2.8004324436187744,1.0
291,1,291,1,-1,-1.4044742760099809,-1.404736690467552,1.8879728686933799,0.5213619447566518,0.9424017083879145,1.6453962326049805,0.0
292,1,292,-1,-1,-1.285995458579378,1.1663595849267339,1.8879728686933799,0.5226335169365102,0.9424017083879145,2.625424385070801,1.0
293,1,293,1,1,1.109510197732109,-1.404736690467552,1.8879728686933799,0.5483432464503404,0.9424017083879145,2.472417116165161,0.0
294,1,294,-1,1,1.2706510218482971,1.1663595849267339,1.8879728686933799,0.5500726879946538,0.9424017083879145,1.9083929061889648,1.0
295,1,295,-1,-1,1.2193652742749108,1.1663595849267339,1.8879728686933799,0.5495222644569124,0.9424017083879145,2.6014232635498047,1.0
296,1,296,-1,-1,0.09559004903694536,1.1663595849267339,1.8879728686933799,0.537461363244223,0.9424017083879145,1.9683935642242432,1.0
297,1,297,1,-1,1.0162262971236364,-1.404736690467552,1.8879728686933799,0.5473420783477646,0.9424017083879145,1.3773996829986572,0.0
298,1,298,1,-1,1.9073873770168877,-1.404736690467552,1.8879728686933799,0.5569064516386156,0.9424017083879145,1.4143991470336914,0.0
299,1,299,-1,1,-0.16167543976336846,1.1663595849267339,1.8879728686933799,0.5347002651383292,0.9424017083879145,1.7263951301574707,1.0
300,1,300,-1,-1,-0.33964281442002553,1.1663595849267339,1.8879728686933799,0.5327902328857842,0.9424017083879145,3.5233969688415527,1.0
301,1,301,1,-1,1.113135454986801,-1.404736690467552,1.8879728686933799,0.5483821544709457,0.9424017083879145,3.159423351287842,0.0
302,1,302,1,-1,1.1871951211227634,-1.404736690467552,1.8879728686933799,0.5491769987574635,0.9424017083879145,2.1094002723693848,0.0
303,1,303,-1,-1,0.6479743309056808,1.1663595849267339,1.8879728686933799,0.5433898194919129,0.9424017083879145,1.4603986740112305,1.0
304,1,304,1,1,-0.5075012207094088,-1.404736690467552,1.8879728686933799,0.5309886949887843,0.9424017083879145,1.5673972368240356,0.0
305,1,305,1,1,0.3416716045477588,-1.404736690467552,1.8879728686933799,0.5401024299492239,0.9424017083879145,1.643396258354187,0.0
306,1,306,1,-1,-0.6847959994714549,-1.404736690467552,1.8879728686933799,0.5290858813618672,0.9424017083879145,1.8263938426971436,0.0
307,1,307,1,1,0.12438570740225624,-1.404736690467552,1.8879728686933799,0.5377704122275949,0.9424017083879145,2.446415901184082,0.0
308,1,308,1,1,-0.8484364552029324,-1.404736690467552,1.8879728686933799,0.527329612557704,0.9424017083879145,2.0553977489471436,0.0
309,1,309,-1,1,0.3597158739981409,1.1663595849267339,1.8879728686933799,0.5402960898078937,0.9424017083879145,2.2934088706970215,1.0
310,1,310,-1,-1,-0.25635946856886604,1.1663595849267339,1.8879728686933799,0.5336840701803022,0.9424017083879145,2.2824082374572754,1.0
311,1,311,-1,-1,-0.4088592443835923,1.1663595849267339,1.8879728686933799,0.5320473685608398,0.9424017083879145,2.463416814804077,1.0
312,1,312,-1,1,0.7640381722955558,1.1663595849267339,1.8879728686933799,0.5446354729766408,0.9424017083879145,1.875393271446228,1.0
313,1,313,-1,1,1.838822049441767,1.1663595849267339,1.8879728686933799,0.5561705752605578,0.9424017083879145,1.6843957901000977,1.0
314,1,314,1,1,-1.4995242816164924,-1.404736690467552,1.8879728686933799,0.5203418219579462,0.9424017083879145,2.748430013656616,0.0
315,1,315,-1,-1,0.35738079332439954,1.1663595849267339,1.8879728686933799,0.5402710285886239,0.9424017083879145,1.522397756576538,1.0
316,1,316,1,-1,-0.09335898761756922,-1.404736690467552,1.8879728686933799,0.5354334704644721,0.9424017083879145,1.577397108078003,0.0
317,1,317,1,1,-0.052243032321960384,-1.404736690467552,1.8879728686933799,0.535874746854936,0.9424017083879145,4.158350944519043,0.0
318,1,318,-1,1,0.07770618045046557,1.1663595849267339,1.8879728686933799,0.5372694248854852,0.9424017083879145,2.5664215087890625,1.0
319,1,319,-1,-1,1.1843959832101574,1.1663595849267339,1.8879728686933799,0.5491469570506466,0.9424017083879145,1.739395022392273,1.0
320,1,320,1,1,-0.027573960692266017,-1.404736690467552,1.8879728686933799,0.5361395073063612,0.9424017083879145,2.5254197120666504,0.0
321,1,321,-1,1,-2.4584453271826723,1.1663595849267339,1.8879728686933799,0.510050215823905,0.9424017083879145,2.640424966812134,1.0
322,1,322,-1,1,-0.6317514540565459,1.1663595849267339,1.8879728686933799,0.5296551811717876,0.9424017083879145,3.2894139289855957,1.0
323,1,323,-1,-1,-0.8969008118134598,1.1663595849267339,1.8879728686933799,0.5268094695573168,0.9424017083879145,2.685427188873291,1.0
324,1,324,1,1,-1.870714485829084,-1.404736690467552,1.8879728686933799,0.5163580285056764,0.9424017083879145,1.52939772605896,0.0
325,1,325,-1,1,-1.4376225529509892,1.1663595849267339,1.8879728686933799,0.5210061813579064,0.9424017083879145,1.9653935432434082,1.0
326,1,326,-1,-1,-1.3444157769391487,1.1663595849267339,1.8879728686933799,0.5220065217218739,0.9424017083879145,5.3682637214660645,1.0
327,1,327,-1,1,1.4668602698517506,1.1663595849267339,1.8879728686933799,0.5521785008868045,0.9424017083879145,1.3533999919891357,1.0
328,1,328,1,-1,-0.44570788039084136,-1.404736690467552,1.8879728686933799,0.5316518911123922,0.9424017083879145,1.4753984212875366,0.0
329,1,329,1,-1,0.872680027548965,-1.404736690467552,1.8879728686933799,0.5458014701034214,0.9424017083879145,2.5204193592071533,0.0
330,1,330,1,1,0.38016571776423963,-1.404736690467552,1.8879728686933799,0.5405155674578175,0.9424017083879145,2.0153958797454834,0.0
331,1,331,-1,1,-1.3151222527069895,1.1663595849267339,1.8879728686933799,0.5223209140433995,0.9424017083879145,2.7874319553375244,1.0
332,1,332,-1,1,0.353397798723908,1.1663595849267339,1.8879728686933799,0.5402282811571729,0.9424017083879145,2.470417022705078,1.0
333,1,333,-1,1,-1.3396238197484218,1.1663595849267339,1.8879728686933799,0.5220579513325245,0.9424017083879145,2.958437919616699,1.0
334,1,334,-1,1,-0.0893557200315999,1.1663595849267339,1.8879728686933799,0.5354764354754441,0.9424017083879145,2.5684216022491455,1.0
335,1,335,-1,1,0.6538602101609805,1.1663595849267339,1.8879728686933799,0.5434529896051649,0.9424017083879145,2.145401954650879,1.0
336,1,336,-1,-1,-0.2559105515759039,1.1663595849267339,1.8879728686933799,0.533688888175381,0.9424017083879145,1.854393482208252,1.0
337,1,337,1,1,0.04559315504271422,-1.404736690467552,1.8879728686933799,0.5369247723087198,0.9424017083879145,1.438398838043213,0.0
338,1,338,1,1,-0.48151711000992625,-1.404736690467552,1.8879728686933799,0.531267569077844,0.9424017083879145,3.2734150886535645,0.0
339,1,339,-1,-1,-0.13488579798033595,1.1663595849267339,1.8879728686933799,0.534987784577993,0.9424017083879145,1.852393627166748,1.0
340,1,340,-1,1,-0.4250304845053956,1.1663595849267339,1.8879728686933799,0.5318738109621176,0.9424017083879145,3.436403274536133,1.0
341,1,341,-1,1,-0.72292829198723,1.1663595849267339,1.8879728686933799,0.5286766270886661,0.9424017083879145,4.840301513671875,1.0
342,1,342,-1,-1,0.7121217870883689,1.1663595849267339,1.8879728686933799,0.5440782811296937,0.9424017083879145,1.7003955841064453,1.0
343,1,343,1,1,1.0273682516556044,-1.404736690467552,1.8879728686933799,0.5474616592122545,0.9424017083879145,3.728382110595703,0.0
344,1,344,1,1,-0.5402519049906074,-1.404736690467552,1.8879728686933799,0.5306371987474608,0.9424017083879145,2.194404125213623,0.0
345,1,345,-1,1,1.5638807195162168,1.1663595849267339,1.8879728686933799,0.5532197714476198,0.9424017083879145,1.524397850036621,1.0
346,1,346,1,1,0.5952533001191735,-1.404736690467552,1.8879728686933799,0.5428239917980229,0.9424017083879145,2.0743985176086426,0.0
347,1,347,1,1,1.7362555348577597,-1.404736690467552,1.8879728686933799,0.5550697816388924,0.9424017083879145,1.7683947086334229,0.0
348,1,348,1,1,1.68214816389748,-1.404736690467552,1.8879728686933799,0.5544890750693094,0.9424017083879145,1.94639253616333,0.0
349,1,349,-1,1,0.1368966552323757,1.1663595849267339,1.8879728686933799,0.5379046857926881,0.9424017083879145,1.4473987817764282,1.0
350,1,350,-1,1,1.3302932069844904,1.1663595849267339,1.8879728686933799,0.550712796876645,0.9424017083879145,3.498398780822754,1.0
351,1,351,-1,1,0.5814875643824974,1.1663595849267339,1.8879728686933799,0.5426762512400257,0.9424017083879145,1.4673985242843628,1.0
352,1,352,-1,1,-1.2833885640580132,1.1663595849267339,1.8879728686933799,0.5226614953939347,0.9424017083879145,2.391413450241089,1.0
353,1,353,1,-1,-0.13527445133727425,-1.404736690467552,1.8879728686933799,0.5349836133615089,0.9424017083879145,3.1074271202087402,0.0
354,1,354,-1,1,0.17390912932062444,1.1663595849267339,1.8879728686933799,0.5383019216309503,0.9424017083879145,1.7153953313827515,1.0
355,1,355,-1,1,0.67885983735147,1.1663595849267339,1.8879728686933799,0.5437212977393246,0.9424017083879145,7.025143623352051,1.0
356,1,356,1,1,-1.3825287428981279,-1.404736690467552,1.8879728686933799,0.5215974748706617,0.9424017083879145,1.7213952541351318,0.0
357,1,357,1,1,0.38450679346722466,-1.404736690467552,1.8879728686933799,0.5405621579894778,0.9424017083879145,1.5373976230621338,0.0
358,1,358,-1,-1,-1.6226172714607539,1.1663595849267339,1.8879728686933799,0.5190207282399637,0.9424017083879145,2.464416742324829,1.0
359,1,359,-1,-1,-0.19495348511483412,1.1663595849267339,1.8879728686933799,0.5343431090020117,0.9424017083879145,4.245344638824463,1.0
360,1,360,-1,-1,1.2576738887595182,1.1663595849267339,1.8879728686933799,0.549933411103072,0.9424017083879145,2.454416275024414,1.0
361,1,361,-1,1,1.3821842641486781,1.1663595849267339,1.8879728686933799,0.5512697168907401,0.9424017083879145,1.6943955421447754,1.0
362,1,362,-1,-1,0.6820583884210766,1.1663595849267339,1.8879728686933799,0.5437556261420229,0.9424017083879145,1.9783940315246582,1.0
363,1,363,1,-1,1.0519479229930069,-1.404736690467552,1.8879728686933799,0.5477254601763468,0.9424017083879145,2.8434345722198486,0.0
364,1,364,1,-1,1.8975686383431987,-1.404736690467552,1.8879728686933799,0.5568010721690233,0.9424017083879145,1.9103927612304688,0.0
365,1,365,1,-1,0.05594549486783608,-1.404736690467552,1.8879728686933799,0.5370358786448864,0.9424017083879145,2.215405225753784,0.0
366,1,366,-1,1,-1.0531667869595511,1.1663595849267339,1.8879728686933799,0.525132347258467,0.9424017083879145,1.4893982410430908,1.0
367,1,367,-1,1,-0.7301527123313577,1.1663595849267339,1.8879728686933799,0.5285990911027032,0.9424017083879145,4.614317893981934,1.0
368,1,368,-1,1,1.4505136974320703,1.1663595849267339,1.8879728686933799,0.5520030615367529,0.9424017083879145,1.599396824836731,1.0
369,1,369,-1,-1,0.5061791130696028,1.1663595849267339,1.8879728686933799,0.5418680043848122,0.9424017083879145,2.6244242191314697,1.0
370,1,370,-1,-1,0.8294993646217969,1.1663595849267339,1.8879728686933799,0.5453380342684192,0.9424017083879145,2.8504347801208496,0.0
371,1,371,-1,-1,-1.0046262484444546,1.1663595849267339,1.8879728686933799,0.5256533078800337,0.9424017083879145,5.89322566986084,1.0
372,1,372,1,-1,0.8967542792371883,-1.404736690467552,1.8879728686933799,0.5460598466585013,0.9424017083879145,1.7443950176239014,0.0
373,1,373,1,1,0.5717160928643337,-1.404736690467552,1.8879728686933799,0.5425713790644906,0.9424017083879145,2.8784360885620117,0.0
374,1,374,1,-1,-0.5434494567668572,-1.404736690467552,1.8879728686933799,0.530602881069664,0.9424017083879145,2.5514209270477295,0.0
375,1,375,-1,-1,0.4221558772413485,1.1663595849267339,1.8879728686933799,0.5409662262319075,0.9424017083879145,2.0933995246887207,1.0
376,1,376,-1,-1,0.006036487960160472,1.1663595849267339,1.8879728686933799,0.5365002309562578,0.9424017083879145,2.2984089851379395,1.0
377,1,377,-1,1,-1.9181027631705143,1.1663595849267339,1.8879728686933799,0.5158494345103483,0.9424017083879145,3.239417552947998,1.0
378,1,378,-1,-1,-0.8103629146502594,1.1663595849267339,1.8879728686933799,0.5277382362763181,0.9424017083879145,2.220405340194702,1.0
379,1,379,1,-1,-0.3010768127709283,-1.404736690467552,1.8879728686933799,0.5332041419359322,0.9424017083879145,2.5174193382263184,0.0
380,1,380,1,1,0.340756778204357,-1.404736690467552,1.8879728686933799,0.5400926115888376,0.9424017083879145,1.5793970823287964,0.0
381,1,381,-1,-1,-1.2866245229933473,1.1663595849267339,1.8879728686933799,0.5226267655118633,0.9424017083879145,1.901392936706543,1.0
382,1,382,-1,-1,-0.5467009927505038,1.1663595849267339,1.8879728686933799,0.5305679840071488,0.9424017083879145,2.5514209270477295,1.0
383,1,383,1,-1,1.3353838134930975,-1.404736690467552,1.8879728686933799,0.5507674317367435,0.9424017083879145,1.827393889427185,0.0
384,1,384,-1,-1,-0.639579514068536,1.1663595849267339,1.8879728686933799,0.5295711666318945,0.9424017083879145,2.222405433654785,1.0
385,1,385,1,1,-1.3209405758139956,-1.404736690467552,1.8879728686933799,0.5222584689755237,0.9424017083879145,2.4974184036254883,0.0
386,1,386,-1,1,1.598560101562389,1.1663595849267339,1.8879728686933799,0.5535919674095724,0.9424017083879145,3.9763641357421875,1.0
387,1,387,-1,-1,-0.39393000587336746,1.1663595849267339,1.8879728686933799,0.5322075963953824,0.9424017083879145,3.051431179046631,1.0
388,1,388,1,1,-1.2387577487679473,-1.404736690467552,1.8879728686933799,0.5231404949680188,0.9424017083879145,1.647396206855774,0.0
389,1,389,-1,-1,0.214263941717035,1.1663595849267339,1.8879728686933799,0.5387350290663511,0.9424017083879145,1.8883931636810303,1.0
390,1,390,-1,1,-0.7816824988583745,1.1663595849267339,1.8879728686933799,0.5280460484204518,0.9424017083879145,6.399188995361328,1.0
391,1,391,-1,1,-1.5063013124590816,1.1663595849267339,1.8879728686933799,0.5202690875732826,0.9424017083879145,2.8904366493225098,1.0
392,1,392,1,-1,-0.7980285570574474,-1.404736690467552,1.8879728686933799,0.5278706145892653,0.9424017083879145,2.9914355278015137,1.0
393,1,393,-1,1,1.194665500554968,1.1663595849267339,1.8879728686933799,0.5492571744957514,0.9424017083879145,1.827393889427185,1.0
394,1,394,1,-1,1.9637120173249174,-1.404736690467552,1.8879728686933799,0.5575109550191307,0.9424017083879145,2.0273964405059814,0.0
395,1,395,-1,1,-0.3664230373405993,1.1663595849267339,1.8879728686933799,0.5325028145339243,0.9424017083879145,1.5373976230621338,1.0
396,1,396,1,1,-2.3207056543827362,-1.404736690467552,1.8879728686933799,0.5115285048530624,0.9424017083879145,1.7503948211669922,0.0
397,1,397,-1,-1,-0.21324074410281202,1.1663595849267339,1.8879728686933799,0.534146841261674,0.9424017083879145,1.345400094985962,1.0
398,1,398,1,1,0.6177434999268868,-1.404736690467552,1.8879728686933799,0.5430653675394013,0.9424017083879145,2.8644354343414307,0.0
399,1,399,-1,1,0.32238768016064023,1.1663595849267339,1.8879728686933799,0.539895465512028,0.9424017083879145,1.3314002752304077,1.0
400,1,400,-1,-1,0.44891636431862847,1.1663595849267339,1.8879728686933799,0.5412534327691171,0.9424017083879145,1.8033941984176636,1.0
401,1,401,-1,-1,0.10774037255364348,1.1663595849267339,1.8879728686933799,0.5375917664141328,0.9424017083879145,1.525397777557373,1.0
402,1,402,-1,-1,-1.1663470229616892,1.1663595849267339,1.8879728686933799,0.5239176420265007,0.9424017083879145,2.921438217163086,1.0
403,1,403,-1,-1,-0.8505159393652962,1.1663595849267339,1.8879728686933799,0.5273072945242643,0.9424017083879145,1.9093928337097168,1.0
404,1,404,-1,1,1.4681703828785766,1.1663595849267339,1.8879728686933799,0.5521925616557547,0.9424017083879145,3.753380298614502,1.0
405,1,405,-1,-1,-0.6634212486293849,1.1663595849267339,1.8879728686933799,0.5293152855634925,0.9424017083879145,1.9573931694030762,1.0
406,1,406,1,-1,-0.9189476058939334,-1.404736690467552,1.8879728686933799,0.5265728526614382,0.9424017083879145,3.669386386871338,0.0
407,1,407,1,1,1.2194873916752311,-1.404736690467552,1.8879728686933799,0.5495235750801301,0.9424017083879145,2.2974090576171875,0.0
408,1,408,1,-1,0.7537727043235254,-1.404736690467552,1.8879728686933799,0.5445252989913704,0.9424017083879145,4.507325649261475,0.0
409,1,409,-1,1,0.23268578032232318,1.1663595849267339,1.8879728686933799,0.5389327411804684,0.9424017083879145,2.177403450012207,1.0
410,1,410,-1,1,2.7827981666407178,1.1663595849267339,1.8879728686933799,0.566301785168895,0.9424017083879145,2.737429618835449,1.0
411,1,411,-1,1,-0.5281837687662523,1.1663595849267339,1.8879728686933799,0.5307667198434545,0.9424017083879145,2.2314059734344482,1.0
412,1,412,-1,1,1.7329502444554228,1.1663595849267339,1.8879728686933799,0.5550343076578627,0.9424017083879145,1.6153966188430786,1.0
413,1,413,1,-1,0.355653811059887,-1.404736690467552,1.8879728686933799,0.540252493776661,0.9424017083879145,2.0513975620269775,0.0
414,1,414,-1,1,0.7110750746748954,1.1663595849267339,1.8879728686933799,0.5440670473039841,0.9424017083879145,3.258416175842285,1.0
415,1,415,1,-1,-1.926265567582645,-1.404736690467552,1.8879728686933799,0.5157618273310635,0.9424017083879145,1.8863930702209473,0.0
416,1,416,1,-1,-0.6710988776911034,-1.404736690467552,1.8879728686933799,0.529232885521579,0.9424017083879145,1.6593960523605347,0.0
417,1,417,-1,-1,-0.29104043464658347,1.1663595849267339,1.8879728686933799,0.5333118572177541,0.9424017083879145,2.9774365425109863,1.0
418,1,418,1,-1,-0.41570326491803006,-1.404736690467552,1.8879728686933799,0.5319739152102856,0.9424017083879145,2.0663981437683105,0.0
419,1,419,-1,1,-1.0959807115279638,1.1663595849267339,1.8879728686933799,0.5246728474375505,0.9424017083879145,2.66442608833313,1.0
420,1,420,1,-1,-1.3858627657923335,-1.404736690467552,1.8879728686933799,0.5215616925185821,0.9424017083879145,3.1214261054992676,0.0
421,1,421,-1,-1,-1.988304911837892,1.1663595849267339,1.8879728686933799,0.5150959909737935,0.9424017083879145,2.460416555404663,1.0
422,1,422,-1,-1,-0.3049242303869918,1.1663595849267339,1.8879728686933799,0.5331628495824889,0.9424017083879145,2.0863990783691406,1.0
423,1,423,1,-1,0.23353985617703854,-1.404736690467552,1.8879728686933799,0.538941907537121,0.9424017083879145,3.3984060287475586,0.0
424,1,424,1,-1,1.458393586572964,-1.404736690467552,1.8879728686933799,0.552087632332016,0.9424017083879145,1.4913982152938843,0.0
425,1,425,1,-1,1.3407101882570858,-1.404736690467552,1.8879728686933799,0.5508245969762037,0.9424017083879145,2.0253963470458984,0.0
426,1,426,-1,-1,-0.3610385484617043,1.1663595849267339,1.8879728686933799,0.5325606034822751,0.9424017083879145,2.137401580810547,1.0
427,1,427,-1,-1,0.3618330215181633,1.1663595849267339,1.8879728686933799,0.5403188120627701,0.9424017083879145,1.919392704963684,1.0
428,1,428,-1,-1,0.27716843747080316,1.1663595849267339,1.8879728686933799,0.5394101506494591,0.9424017083879145,1.757394790649414,1.0
429,1,429,-1,1,1.4271049564234437,1.1663595849267339,1.8879728686933799,0.5517518275653343,0.9424017083879145,1.2794009447097778,1.0
430,1,430,1,1,-0.46544171482113816,-1.404736690467552,1.8879728686933799,0.5314400980222206,0.9424017083879145,1.8203940391540527,0.0
431,1,431,-1,1,-1.7794349461503194,1.1663595849267339,1.8879728686933799,0.517337684833811,0.9424017083879145,1.8783931732177734,1.0
432,1,432,-1,-1,0.1695586387638564,1.1663595849267339,1.8879728686933799,0.5382552300545091,0.9424017083879145,1.4793983697891235,1.0
433,1,433,-1,1,1.1848581570176946,1.1663595849267339,1.8879728686933799,0.5491519173242945,0.9424017083879145,2.2334060668945312,1.0
434,1,434,1,1,-1.167958006526901,-1.404736690467552,1.8879728686933799,0.523900352168886,0.9424017083879145,1.9953949451446533,0.0
435,1,435,1,1,-0.685148475487269,-1.404736690467552,1.8879728686933799,0.5290820984181689,0.9424017083879145,3.133425235748291,0.0
436,1,436,1,-1,-1.1868409870145544,-1.404736690467552,1.8879728686933799,0.5236976908562427,0.9424017083879145,2.5684216022491455,0.0
437,1,437,-1,1,-0.155451908513706,1.1663595849267339,1.8879728686933799,0.5347670590966854,0.9424017083879145,1.312400460243225,1.0
438,1,438,1,-1,0.16288190698945493,-1.404736690467552,1.8879728686933799,0.5381835721281318,0.9424017083879145,1.434398889541626,0.0
439,1,439,1,-1,0.6146159831364131,-1.404736690467552,1.8879728686933799,0.5430318015110677,0.9424017083879145,2.1013998985290527,0.0
440,1,440,1,1,0.5055426918534944,-1.404736690467552,1.8879728686933799,0.5418611740033936,0.9424017083879145,2.481417655944824,0.0
441,1,441,1,1,1.485838101413516,-1.404736690467552,1.8879728686933799,0.5523821801872172,0.9424017083879145,2.2834084033966064,0.0
442,1,442,1,1,1.5820915658100279,-1.404736690467552,1.8879728686933799,0.5534152190898318,0.9424017083879145,3.2344179153442383,0.0
443,1,443,-1,1,0.34473442437094726,1.1663595849267339,1.8879728686933799,0.5401353016182998,0.9424017083879145,2.195404291152954,1.0
444,1,444,1,-1,0.3063464023331665,-1.404736690467552,1.8879728686933799,0.5397233027317341,0.9424017083879145,1.6353963613510132,0.0
445,1,445,-1,-1,-0.11680409722151516,1.1663595849267339,1.8879728686933799,0.5351818461676346,0.9424017083879145,2.215405225753784,1.0
446,1,446,1,1,0.5546331485050235,-1.404736690467552,1.8879728686933799,0.5423880366133381,0.9424017083879145,3.0804290771484375,0.0
447,1,447,1,-1,0.2969874940422503,-1.404736690467552,1.8879728686933799,0.5396228583850174,0.9424017083879145,2.0883991718292236,0.0
448,1,448,1,-1,-0.3358614515318047,-1.404736690467552,1.8879728686933799,0.5328308163078244,0.9424017083879145,2.2274057865142822,0.0
449,1,449,1,1,0.4748273633006975,-1.404736690467552,1.8879728686933799,0.5415315221877361,0.9424017083879145,1.8213939666748047,0.0
450,1,450,1,1,-0.09892680594476204,-1.404736690467552,1.8879728686933799,0.5353737139354917,0.9424017083879145,2.8504347801208496,0.0
451,1,451,-1,-1,0.05779592623126199,1.1663595849267339,1.8879728686933799,0.5370557383725026,0.9424017083879145,3.9393668174743652,1.0
452,1,452,-1,1,2.5809577477492196,1.1663595849267339,1.8879728686933799,0.5641355358173286,0.9424017083879145,2.4874179363250732,1.0
453,1,453,-1,1,-0.009385146181008247,1.1663595849267339,1.8879728686933799,0.5363347184927885,0.9424017083879145,1.944392442703247,1.0
454,1,454,1,-1,-1.2581510670396945,-1.404736690467552,1.8879728686933799,0.522932356462552,0.9424017083879145,4.140352249145508,0.0
455,1,455,1,1,0.36047371376689047,-1.404736690467552,1.8879728686933799,0.5403042233121574,0.9424017083879145,2.2964088916778564,0.0
456,1,456,1,1,1.1108343868599704,-1.404736690467552,1.8879728686933799,0.5483574582908396,0.9424017083879145,1.621396541595459,0.0
457,1,457,-1,-1,-0.35496925579591604,1.1663595849267339,1.8879728686933799,0.5326257420772796,0.9424017083879145,2.0563976764678955,1.0
458,1,458,-1,-1,-1.0307163105868085,1.1663595849267339,1.8879728686933799,0.525373296668659,0.9424017083879145,2.2894086837768555,1.0
459,1,459,1,-1,-0.37963404781386084,-1.404736690467552,1.8879728686933799,0.5323610275567251,0.9424017083879145,2.115400552749634,0.0
460,1,460,1,-1,0.8875280196915621,-1.404736690467552,1.8879728686933799,0.5459608259625086,0.9424017083879145,1.8253939151763916,0.0
461,1,461,1,-1,-0.981747616338364,-1.404736690467552,1.8879728686933799,0.5258988524653885,0.9424017083879145,3.8483734130859375,0.0
462,1,462,1,-1,-0.575228479005658,-1.404736690467552,1.8879728686933799,0.5302618131770374,0.9424017083879145,1.9253926277160645,0.0
463,1,463,-1,-1,0.49462222386506716,1.1663595849267339,1.8879728686933799,0.5417439702400014,0.9424017083879145,3.840373992919922,1.0
464,1,464,-1,1,1.0718732136967388,1.1663595849267339,1.8879728686933799,0.5479393080681803,0.9424017083879145,2.945438861846924,1.0
465,1,465,1,1,0.35765027211515016,-1.404736690467552,1.8879728686933799,0.5402739207658148,0.9424017083879145,3.1044273376464844,0.0
466,1,466,1,-1,-1.1060406153869247,-1.404736690467552,1.8879728686933799,0.5245648796661251,0.9424017083879145,2.223405599594116,0.0
467,1,467,-1,1,-0.5431777824183628,1.1663595849267339,1.8879728686933799,0.5306057968106465,0.9424017083879145,1.5983967781066895,1.0
468,1,468,1,1,0.4467334179133059,-1.404736690467552,1.8879728686933799,0.541230004328664,0.9424017083879145,5.584248065948486,0.0
469,1,469,-1,1,0.7941785440772072,1.1663595849267339,1.8879728686933799,0.5449589540771387,0.9424017083879145,2.5014185905456543,1.0
470,1,470,-1,-1,-1.5976309457244133,1.1663595849267339,1.8879728686933799,0.5192888936164608,0.9424017083879145,1.5003981590270996,1.0
471,1,471,1,1,0.7228072062941318,-1.404736690467552,1.8879728686933799,0.5441929622354544,0.9424017083879145,1.4573986530303955,0.0
472,1,472,-1,-1,2.3228194749718654,1.1663595849267339,1.8879728686933799,0.5613650705701323,0.9424017083879145,2.748430013656616,1.0
473,1,473,-1,-1,-0.008679481908941855,1.1663595849267339,1.8879728686933799,0.5363422920242951,0.9424017083879145,1.7363951206207275,1.0
474,1,474,-1,-1,0.615408055891137,1.1663595849267339,1.8879728686933799,0.543040302420354,0.9424017083879145,2.164402723312378,1.0
475,1,475,-1,-1,0.3689375648668135,1.1663595849267339,1.8879728686933799,0.5403950614706277,0.9424017083879145,1.7373950481414795,1.0
476,1,476,-1,-1,-0.11494723315323141,1.1663595849267339,1.8879728686933799,0.535201774934162,0.9424017083879145,3.111426830291748,1.0
477,1,477,-1,-1,-1.8174135904325723,1.1663595849267339,1.8879728686933799,0.5169300795880349,0.9424017083879145,2.228405714035034,1.0
478,1,478,-1,1,-0.3795344555272397,1.1663595849267339,1.8879728686933799,0.5323620964294886,0.9424017083879145,1.595396876335144,1.0
479,1,479,-1,1,0.02906089867444897,1.1663595849267339,1.8879728686933799,0.5367473401083985,0.9424017083879145,4.119353771209717,1.0
480,1,480,-1,-1,-0.03141532728217164,1.1663595849267339,1.8879728686933799,0.536098279895468,0.9424017083879145,1.6083967685699463,1.0
481,1,481,-1,1,1.0277080384174142,1.1663595849267339,1.8879728686933799,0.5474653059687193,0.9424017083879145,1.7483949661254883,1.0
482,1,482,-1,-1,-1.2082879374161017,1.1663595849267339,1.8879728686933799,0.5234675117738984,0.9424017083879145,2.0403969287872314,1.0
483,1,483,-1,1,1.3879667780299443,1.1663595849267339,1.8879728686933799,0.551331777636623,0.9424017083879145,2.5744218826293945,1.0
484,1,484,1,-1,-1.1802202393862506,-1.404736690467552,1.8879728686933799,0.5237687479335886,0.9424017083879145,3.543395519256592,0.0
485,1,485,1,1,-1.4252057240141554,-1.404736690467552,1.8879728686933799,0.5211394447933504,0.9424017083879145,2.2724077701568604,0.0
486,1,486,-1,-1,-0.10528681563763898,1.1663595849267339,1.8879728686933799,0.5353054552242344,0.9424017083879145,2.716428518295288,1.0
487,1,487,-1,1,-0.20871815063880111,1.1663595849267339,1.8879728686933799,0.5341953799300568,0.9424017083879145,2.962437629699707,1.0
488,1,488,-1,-1,-1.0446984832653634,1.1663595849267339,1.8879728686933799,0.5252232332043402,0.9424017083879145,2.2514069080352783,1.0
489,1,489,1,-1,0.300168402299967,-1.404736690467552,1.8879728686933799,0.5396569974364944,0.9424017083879145,2.661426067352295,0.0
490,1,490,1,1,-0.4302179461132676,-1.404736690467552,1.8879728686933799,0.5318181366060791,0.9424017083879145,2.2294058799743652,0.0
491,1,491,1,1,-0.8842578762371025,-1.404736690467552,1.8879728686933799,0.5269451596789713,0.9424017083879145,3.1624231338500977,0.0
492,1,492,1,-1,-0.3541678635389055,-1.404736690467552,1.8879728686933799,0.5326343430079884,0.9424017083879145,2.2514069080352783,0.0
493,1,493,1,1,-0.37091916827210836,-1.404736690467552,1.8879728686933799,0.5324545598742856,0.9424017083879145,1.4023993015289307,0.0
494,1,494,-1,1,-0.08907302690527978,1.1663595849267339,1.8879728686933799,0.5354794694752988,0.9424017083879145,1.9693937301635742,1.0
495,1,495,1,-1,-1.1406918607648702,-1.404736690467552,1.8879728686933799,0.5241929856805537,0.9424017083879145,2.394413471221924,0.0
496,1,496,1,-1,-0.5271964951103273,-1.404736690467552,1.8879728686933799,0.5307773157435656,0.9424017083879145,2.218405246734619,0.0
497,1,497,-1,1,0.2260398024712877,1.1663595849267339,1.8879728686933799,0.538861413320125,0.9424017083879145,4.662314414978027,1.0
498,1,498,1,1,-0.538282333746038,-1.404736690467552,1.8879728686933799,0.5306583371421136,0.9424017083879145,1.3703997135162354,0.0
499,1,499,-1,-1,0.8360806871536061,1.1663595849267339,1.8879728686933799,0.545408668216492,0.9424017083879145,2.39841365814209,1.0
500,1,500,-1,1,0.14921072031029017,1.1663595849267339,1.8879728686933799,0.5380368463165153,0.9424017083879145,1.6823956966400146,1.0
501,1,501,-1,-1,0.08553410324412698,1.1663595849267339,1.8879728686933799,0.5373534379526846,0.9424017083879145,4.373335361480713,1.0
502,1,502,-1,-1,-0.17814527500689786,1.1663595849267339,1.8879728686933799,0.5345235028718187,0.9424017083879145,2.189404010772705,1.0
503,1,503,1,1,-0.27048165712026195,-1.404736690467552,1.8879728686933799,0.5335325039976705,0.9424017083879145,3.79337739944458,0.0
504,1,504,-1,1,2.65782917300404,1.1663595849267339,1.8879728686933799,0.5649605572675751,0.9424017083879145,1.4193991422653198,1.0
505,1,505,1,-1,0.06476760846879427,-1.404736690467552,1.8879728686933799,0.5371305618504232,0.9424017083879145,1.625396490097046,0.0
506,1,506,-1,-1,-0.5009913294378854,1.1663595849267339,1.8879728686933799,0.5310585623018981,0.9424017083879145,2.5574212074279785,1.0
507,1,507,1,-1,0.7137823709264548,-1.404736690467552,1.8879728686933799,0.5440961033215135,0.9424017083879145,4.2543439865112305,0.0
508,1,508,1,-1,-0.3669105246325381,-1.404736690467552,1.8879728686933799,0.5324975825836744,0.9424017083879145,3.626389503479004,0.0
509,1,509,1,-1,0.4168998592209793,-1.404736690467552,1.8879728686933799,0.5409098160951719,0.9424017083879145,2.9544382095336914,0.0
510,1,510,-1,-1,-1.637114199131575,1.1663595849267339,1.8879728686933799,0.518865140175199,0.9424017083879145,2.694427490234375,1.0
511,1,511,1,-1,-1.1263208646876681,-1.404736690467552,1.8879728686933799,0.5243472221863269,0.9424017083879145,2.6284244060516357,0.0
512,1,512,-1,-1,-1.6764962784844069,1.1663595849267339,1.8879728686933799,0.5184424725829995,0.9424017083879145,1.6453962326049805,0.0
513,1,513,-1,-1,0.5309841186709201,1.1663595849267339,1.8879728686933799,0.542134223745605,0.9424017083879145,4.299340724945068,1.0
514,1,514,1,-1,-0.024415965024627354,-1.404736690467552,1.8879728686933799,0.5361734004487994,0.9424017083879145,1.879393219947815,0.0
515,1,515,-1,-1,-2.193121873817738,1.1663595849267339,1.8879728686933799,0.5128977959169494,0.9424017083879145,3.5483951568603516,1.0
516,1,516,-1,1,0.7421619464016879,1.1663595849267339,1.8879728686933799,0.5444006867013369,0.9424017083879145,1.8743932247161865,1.0
517,1,517,1,1,0.7379816690714471,-1.404736690467552,1.8879728686933799,0.5443558219358666,0.9424017083879145,1.5453975200653076,0.0
518,1,518,-1,-1,-1.0209511581219612,1.1663595849267339,1.8879728686933799,0.5254781010250466,0.9424017083879145,1.5643973350524902,1.0
519,1,519,-1,-1,0.6383137154746036,1.1663595849267339,1.8879728686933799,0.5432861370777154,0.9424017083879145,3.282414436340332,1.0
520,1,520,-1,-1,-1.3064330994469278,1.1663595849267339,1.8879728686933799,0.522414170254017,0.9424017083879145,1.2614011764526367,1.0
521,1,521,1,-1,0.2506583151082074,-1.404736690467552,1.8879728686933799,0.5391256311478978,0.9424017083879145,1.5663971900939941,0.0
522,1,522,-1,1,-0.6348399873742772,1.1663595849267339,1.8879728686933799,0.5296220335330065,0.9424017083879145,1.3563998937606812,1.0
523,1,523,1,1,0.26837367216194313,-1.404736690467552,1.8879728686933799,0.5393157609590684,0.9424017083879145,2.167402982711792,0.0
524,1,524,1,1,1.1685244736163578,-1.404736690467552,1.8879728686933799,0.5489766163054443,0.9424017083879145,1.5873969793319702,0.0
525,1,525,1,-1,-0.8608317276673264,-1.404736690467552,1.8879728686933799,0.5271965804767861,0.9424017083879145,2.5924227237701416,0.0
526,1,526,-1,-1,0.7998859160748356,1.1663595849267339,1.8879728686933799,0.5450202083638516,0.9424017083879145,1.5903968811035156,1.0
527,1,527,1,-1,-1.0559676036960068,-1.404736690467552,1.8879728686933799,0.5251022875336977,0.9424017083879145,2.7844316959381104,0.0
528,1,528,-1,-1,0.8076421592447078,1.1663595849267339,1.8879728686933799,0.5451034521305341,0.9424017083879145,1.3084005117416382,1.0
529,1,529,1,1,-0.49280826096624886,-1.404736690467552,1.8879728686933799,0.5311463869649059,0.9424017083879145,2.470417022705078,0.0
530,1,530,1,-1,2.2396738784174137,-1.404736690467552,1.8879728686933799,0.5604727116679318,0.9424017083879145,1.5603973865509033,0.0
531,1,531,-1,1,1.212786075866983,1.1663595849267339,1.8879728686933799,0.5494516533059681,0.9424017083879145,4.00336217880249,1.0
532,1,532,1,-1,-0.177798187230589,-1.404736690467552,1.8879728686933799,0.534527227986315,0.9424017083879145,1.762394666671753,0.0
533,1,533,-1,-1,-0.7317427986395617,1.1663595849267339,1.8879728686933799,0.5285820255245945,0.9424017083879145,1.6893956661224365,1.0
534,1,534,-1,-1,1.5588485537875052,1.1663595849267339,1.8879728686933799,0.5531657638023391,0.9424017083879145,3.4474024772644043,1.0
535,1,535,-1,-1,0.12841449647340009,1.1663595849267339,1.8879728686933799,0.5378136511475342,0.9424017083879145,2.5004184246063232,1.0
536,1,536,1,1,-0.1065784335216043,-1.404736690467552,1.8879728686933799,0.5352915929541352,0.9424017083879145,1.6583960056304932,0.0
537,1,537,1,-1,0.3143511584176273,-1.404736690467552,1.8879728686933799,0.5398092136596475,0.9424017083879145,2.7514302730560303,0.0
538,1,538,1,1,0.43361417776094013,-1.404736690467552,1.8879728686933799,0.5410892022750952,0.9424017083879145,2.5814223289489746,0.0
539,1,539,-1,1,1.3096928053099393,1.1663595849267339,1.8879728686933799,0.5504917033661648,0.9424017083879145,1.3793996572494507,1.0
540,1,540,1,1,-0.1878178615430115,-1.404736690467552,1.8879728686933799,0.5344196919779111,0.9424017083879145,3.068429946899414,0.0
541,1,541,-1,1,-1.3790182353993958,1.1663595849267339,1.8879728686933799,0.5216351513411851,0.9424017083879145,1.6783957481384277,1.0
542,1,542,1,1,-1.0225966423145096,-1.404736690467552,1.8879728686933799,0.5254604408899523,0.9424017083879145,2.177403450012207,0.0
543,1,543,-1,1,1.6335195494586343,1.1663595849267339,1.8879728686933799,0.5539671691741758,0.9424017083879145,2.391413450241089,1.0
544,1,544,1,-1,0.7882436152591646,-1.404736690467552,1.8879728686933799,0.5448952575401701,0.9424017083879145,2.146401882171631,0.0
545,1,545,-1,-1,0.1821345062969289,1.1663595849267339,1.8879728686933799,0.5383902003693674,0.9424017083879145,1.3024005889892578,1.0
546,1,546,1,-1,0.2082917076010326,-1.404736690467552,1.8879728686933799,0.5386709321508163,0.9424017083879145,2.17240309715271,0.0
547,1,547,1,1,1.976749670711983,-1.404736690467552,1.8879728686933799,0.557650881443931,0.9424017083879145,2.7714312076568604,0.0
548,1,548,-1,1,-0.1888746600701165,1.1663595849267339,1.8879728686933799,0.534408349903134,0.9424017083879145,1.8653934001922607,1.0
549,1,549,-1,1,0.6034343943083103,1.1663595849267339,1.8879728686933799,0.5429117952720726,0.9424017083879145,2.401413917541504,1.0
550,1,550,1,-1,0.9578350133111331,-1.404736690467552,1.8879728686933799,0.5467153947459833,0.9424017083879145,1.622396469116211,0.0
551,1,551,-1,1,0.8744683783497077,1.1663595849267339,1.8879728686933799,0.5458206635523043,0.9424017083879145,3.365408420562744,1.0
552,1,552,1,-1,0.2181016480193157,-1.404736690467552,1.8879728686933799,0.5387762171932607,0.9424017083879145,1.4943981170654297,0.0
553,1,553,1,1,-1.9168543139789638,-1.404736690467552,1.8879728686933799,0.5158628334730858,0.9424017083879145,2.0403969287872314,0.0
554,1,554,-1,-1,-1.21929709535896,1.1663595849267339,1.8879728686933799,0.5233493561468641,0.9424017083879145,2.726428985595703,1.0
555,1,555,-1,1,0.37562272280656994,1.1663595849267339,1.8879728686933799,0.5404668098307016,0.9424017083879145,2.693427562713623,1.0
556,1,556,1,-1,0.502500710690027,-1.404736690467552,1.8879728686933799,0.5418285259849291,0.9424017083879145,2.0803987979888916,0.0
557,1,557,1,1,1.3623619085505643,-1.404736690467552,1.8879728686933799,0.5510569737484262,0.9424017083879145,4.045359134674072,0.0
558,1,558,1,1,0.23890623038606218,-1.404736690467552,1.8879728686933799,0.5389995020700417,0.9424017083879145,2.0203959941864014,0.0
559,1,559,-1,1,0.06639595805940948,1.1663595849267339,1.8879728686933799,0.5371480380886522,0.9424017083879145,1.5233978033065796,1.0
560,1,560,1,1,0.4005282245412023,-1.404736690467552,1.8879728686933799,0.5407341077647794,0.9424017083879145,3.4823999404907227,0.0
561,1,561,-1,1,-0.30789005125486246,1.1663595849267339,1.8879728686933799,0.5331310189532861,0.9424017083879145,3.4174046516418457,1.0
562,1,562,1,-1,0.6762386375674687,-1.404736690467552,1.8879728686933799,0.5436931657508774,0.9424017083879145,1.8333938121795654,0.0
563,1,563,-1,1,1.3008064878013454,1.1663595849267339,1.8879728686933799,0.550396331093126,0.9424017083879145,2.137401580810547,1.0
564,1,564,1,-1,-1.496346007794612,-1.404736690467552,1.8879728686933799,0.520375932735379,0.9424017083879145,2.0933995246887207,0.0
565,1,565,-1,-1,0.8605638117474214,1.1663595849267339,1.8879728686933799,0.5456714329940671,0.9424017083879145,1.7003955841064453,1.0
566,1,566,-1,-1,-1.6480833981769343,1.1663595849267339,1.8879728686933799,0.5187474134064491,0.9424017083879145,4.6803131103515625,1.0
567,1,567,1,-1,-0.8093757724856068,-1.404736690467552,1.8879728686933799,0.5277488307652011,0.9424017083879145,2.8284337520599365,0.0
568,1,568,-1,-1,1.3422233769548773,1.1663595849267339,1.8879728686933799,0.5508408372518303,0.9424017083879145,2.0993998050689697,1.0
569,1,569,1,-1,-0.019944264940589776,-1.404736690467552,1.8879728686933799,0.5362213929047239,0.9424017083879145,1.66839599609375,0.0
570,1,570,1,1,0.21905059935221577,-1.404736690467552,1.8879728686933799,0.538786401799599,0.9424017083879145,1.9073928594589233,0.0
571,1,571,1,-1,0.7184543066943025,-1.404736690467552,1.8879728686933799,0.5441462448039938,0.9424017083879145,4.919295787811279,0.0
572,1,572,1,1,0.41272945032144615,-1.404736690467552,1.8879728686933799,0.5408650572424902,0.9424017083879145,1.6973955631256104,0.0
573,1,573,1,1,0.9989821839371404,-1.404736690467552,1.8879728686933799,0.5471570061545253,0.9424017083879145,3.2134194374084473,0.0
574,1,574,1,-1,-0.44789535423488813,-1.404736690467552,1.8879728686933799,0.5316284140812689,0.9424017083879145,3.429403781890869,0.0
575,1,575,1,-1,2.2483659353837466,-1.404736690467552,1.8879728686933799,0.5605659990425346,0.9424017083879145,1.3793996572494507,0.0
576,1,576,1,-1,0.5126393036792578,-1.404736690467552,1.8879728686933799,0.5419373382862974,0.9424017083879145,1.810394048690796,0.0
577,1,577,1,1,0.33594692304196205,-1.404736690467552,1.8879728686933799,0.5400409898884672,0.9424017083879145,2.236406087875366,0.0
578,1,578,1,-1,0.9329162836493843,-1.404736690467552,1.8879728686933799,0.5464479548433707,0.9424017083879145,1.8173940181732178,0.0
579,1,579,1,1,1.0179077843363613,-1.404736690467552,1.8879728686933799,0.5473601248847478,0.9424017083879145,1.900393009185791,0.0
580,1,580,1,1,-1.2017967017624152,-1.404736690467552,1.8879728686933799,0.5235371788658658,0.9424017083879145,4.409332752227783,0.0
581,1,581,1,-1,-0.602727064335624,-1.404736690467552,1.8879728686933799,0.5299666850110972,0.9424017083879145,1.9833943843841553,0.0
582,1,582,1,-1,1.6504879299232205,-1.404736690467552,1.8879728686933799,0.5541492820699991,0.9424017083879145,1.6733958721160889,0.0
583,1,583,1,1,0.6660441774977954,-1.404736690467552,1.8879728686933799,0.5435837538568833,0.9424017083879145,1.6503961086273193,0.0
584,1,584,1,1,0.7176689733491853,-1.404736690467552,1.8879728686933799,0.5441378162253228,0.9424017083879145,2.695427656173706,0.0
585,1,585,-1,1,0.24990307993666083,1.1663595849267339,1.8879728686933799,0.5391175255974356,0.9424017083879145,1.5593973398208618,1.0
586,1,586,1,1,-0.6773228173835142,-1.404736690467552,1.8879728686933799,0.5291660871796169,0.9424017083879145,2.3394110202789307,0.0
587,1,587,-1,-1,0.9847776167022022,1.1663595849267339,1.8879728686933799,0.5470045558438742,0.9424017083879145,2.675426721572876,1.0
588,1,588,-1,-1,-0.37417646460192494,1.1663595849267339,1.8879728686933799,0.532419600988939,0.9424017083879145,1.6283965110778809,1.0
589,1,589,-1,-1,1.4775960265095396,1.1663595849267339,1.8879728686933799,0.5522937222385349,0.9424017083879145,2.383413076400757,1.0
590,1,590,-1,-1,-0.9366007413897165,1.1663595849267339,1.8879728686933799,0.5263833906422307,0.9424017083879145,1.6963956356048584,1.0
591,1,591,-1,-1,-0.28792273558953746,1.1663595849267339,1.8879728686933799,0.5333453178774069,0.9424017083879145,2.902437210083008,1.0
592,1,592,-1,-1,-1.0460043417751235,1.1663595849267339,1.8879728686933799,0.5252092180969323,0.9424017083879145,3.6543874740600586,1.0
593,1,593,1,-1,-0.731893613896273,-1.404736690467552,1.8879728686933799,0.5285804069020518,0.9424017083879145,2.2764079570770264,0.0
594,1,594,1,1,-1.0428167908515988,-1.404736690467552,1.8879728686933799,0.5252434284407232,0.9424017083879145,1.6863956451416016,0.0
595,1,595,-1,-1,0.4850895665096113,1.1663595849267339,1.8879728686933799,0.541641661133984,0.9424017083879145,1.8613934516906738,1.0
596,1,596,1,-1,-0.9459958553882591,-1.404736690467552,1.8879728686933799,0.5262825577182851,0.9424017083879145,1.8643934726715088,0.0
597,1,597,1,-1,-0.5270715513370238,-1.404736690467552,1.8879728686933799,0.53077865670079,0.9424017083879145,2.133401393890381,0.0
598,1,598,-1,-1,-1.2722581654078955,1.1663595849267339,1.8879728686933799,0.5227809522350912,0.9424017083879145,2.411414384841919,1.0
599,1,599,-1,-1,0.7313701430372399,1.1663595849267339,1.8879728686933799,0.5442848638291449,0.9424017083879145,2.0003950595855713,1.0
600,1,600,1,-1,0.48364084819944897,-1.404736690467552,1.8879728686933799,0.5416261127858523,0.9424017083879145,1.4563987255096436,0.0
601,1,601,1,-1,1.3355506426425516,-1.404736690467552,1.8879728686933799,0.5507692222281565,0.9424017083879145,2.8444344997406006,0.0
602,1,602,1,-1,1.1342431961913941,-1.404736690467552,1.8879728686933799,0.5486086929955317,0.9424017083879145,1.4263989925384521,0.0
603,1,603,-1,1,-2.2261107636358135,1.1663595849267339,1.8879728686933799,0.5125437431381761,0.9424017083879145,2.149402141571045,1.0
604,1,604,1,-1,-2.459080098655587,-1.404736690467552,1.8879728686933799,0.5100434031483312,0.9424017083879145,2.6114237308502197,0.0
605,1,605,1,-1,-0.4640493870636056,-1.404736690467552,1.8879728686933799,0.5314550411595689,0.9424017083879145,3.7633795738220215,0.0
606,1,606,-1,1,1.6309115676491723,1.1663595849267339,1.8879728686933799,0.5539391790474476,0.9424017083879145,1.954392910003662,1.0
607,1,607,1,-1,-1.5934625598705758,-1.404736690467552,1.8879728686933799,0.5193336307568341,0.9424017083879145,2.133401393890381,0.0
608,1,608,-1,1,2.221268452085492,1.1663595849267339,1.8879728686933799,0.560275175698299,0.9424017083879145,1.3663997650146484,1.0
609,1,609,1,-1,0.13089006181527701,-1.404736690467552,1.8879728686933799,0.5378402201164556,0.9424017083879145,1.4653985500335693,0.0
610,1,610,1,1,-0.1757421086785279,-1.404736690467552,1.8879728686933799,0.5345492948193836,0.9424017083879145,2.184403657913208,0.0
611,1,611,1,-1,-0.22546534161724835,-1.404736690467552,1.8879728686933799,0.5340156409471669,0.9424017083879145,1.5893969535827637,0.0
612,1,612,1,1,1.1263830431378061,-1.404736690467552,1.8879728686933799,0.5485243340175378,0.9424017083879145,2.40541410446167,0.0
613,1,613,1,1,1.4627947873455633,-1.404736690467552,1.8879728686933799,0.5521348681551088,0.9424017083879145,2.3274104595184326,0.0
614,1,614,1,1,-0.11817310812446431,-1.404736690467552,1.8879728686933799,0.5351671532780882,0.9424017083879145,2.3634121417999268,0.0
615,1,615,1,-1,-0.4849351487522554,-1.404736690467552,1.8879728686933799,0.5312308850268999,0.9424017083879145,1.577397108078003,0.0
616,1,616,1,1,-1.3101636587043741,-1.404736690467552,1.8879728686933799,0.5223741320812031,0.9424017083879145,4.111354351043701,0.0
617,1,617,-1,1,0.977933545092548,1.1663595849267339,1.8879728686933799,0.5469311019451559,0.9424017083879145,1.6393963098526,1.0
618,1,618,1,-1,-1.130477456848146,-1.404736690467552,1.8879728686933799,0.5243026116215955,0.9424017083879145,3.5713934898376465,0.0
619,1,619,1,-1,-0.8480806613573967,-1.404736690467552,1.8879728686933799,0.5273334311099614,0.9424017083879145,2.211405038833618,0.0
620,1,620,-1,1,-1.497685290143052,1.1663595849267339,1.8879728686933799,0.52036155890711,0.9424017083879145,3.415404796600342,1.0
621,1,621,-1,1,-0.3574989685789851,1.1663595849267339,1.8879728686933799,0.5325985919717355,0.9424017083879145,3.0414319038391113,1.0
622,1,622,1,-1,1.2145579306064118,-1.404736690467552,1.8879728686933799,0.5494706697111136,0.9424017083879145,2.136401414871216,0.0
623,1,623,1,1,-0.5575428326450234,-1.404736690467552,1.8879728686933799,0.5304516241186276,0.9424017083879145,4.900297164916992,0.0
624,1,624,-1,1,-0.558807469853162,1.1663595849267339,1.8879728686933799,0.5304380514182381,0.9424017083879145,1.756394863128662,1.0
625,1,625,1,1,-1.0727481213688428,-1.404736690467552,1.8879728686933799,0.5249221908725464,0.9424017083879145,1.764394760131836,0.0
626,1,626,1,-1,3.457935650826102,-1.404736690467552,1.8879728686933799,0.5735476883698837,0.9424017083879145,1.3803995847702026,0.0
627,1,627,1,-1,-0.7667204933361959,-1.404736690467552,1.8879728686933799,0.5282066279264722,0.9424017083879145,2.2954089641571045,0.0
628,1,628,1,-1,-1.898590978215257,-1.404736690467552,1.8879728686933799,0.5160588444577678,0.9424017083879145,3.091428279876709,0.0
629,1,629,1,-1,0.5101437315131002,-1.404736690467552,1.8879728686933799,0.5419105545944263,0.9424017083879145,1.2854008674621582,0.0
630,1,630,-1,-1,0.13675624965621924,1.1663595849267339,1.8879728686933799,0.5379031788918901,0.9424017083879145,1.1684019565582275,1.0
631,1,631,1,1,0.22822598074146283,-1.404736690467552,1.8879728686933799,0.5388848764465206,0.9424017083879145,2.7674310207366943,0.0
632,1,632,1,-1,2.3845190800017155,-1.404736690467552,1.8879728686933799,0.5620272606811212,0.9424017083879145,2.936438798904419,0.0
633,1,633,1,-1,-0.43665080088795,-1.404736690467552,1.8879728686933799,0.531749096086044,0.9424017083879145,3.048431396484375,0.0
634,1,634,-1,1,0.2500079504468102,1.1663595849267339,1.8879728686933799,0.5391186511186561,0.9424017083879145,2.5354201793670654,1.0
635,1,635,1,1,0.04269686282331306,-1.404736690467552,1.8879728686933799,0.5368936878947225,0.9424017083879145,1.4643986225128174,0.0
636,1,636,-1,-1,-0.8303014303291468,1.1663595849267339,1.8879728686933799,0.5275242464476317,0.9424017083879145,1.4963982105255127,1.0
637,1,637,1,-1,-0.40504248787152175,-1.404736690467552,1.8879728686933799,0.5320883318444317,0.9424017083879145,1.6843957901000977,0.0
638,1,638,-1,-1,0.34026694268036123,1.1663595849267339,1.8879728686933799,0.5400873544362215,0.9424017083879145,3.114426612854004,1.0
639,1,639,1,-1,1.5468592548922375,-1.404736690467552,1.8879728686933799,0.55303708882683,0.9424017083879145,2.167402982711792,0.0
640,1,640,-1,1,2.2728391391988207,1.1663595849267339,1.8879728686933799,0.5608286573454965,0.9424017083879145,2.2814083099365234,1.0
641,1,641,-1,1,-0.28272647261555306,1.1663595849267339,1.8879728686933799,0.5334010866939788,0.9424017083879145,4.588319778442383,1.0
642,1,642,1,-1,-1.5334687331262964,-1.404736690467552,1.8879728686933799,0.5199775136272549,0.9424017083879145,1.6033967733383179,0.0
643,1,643,-1,1,-0.910864421965357,1.1663595849267339,1.8879728686933799,0.5266596053150446,0.9424017083879145,1.6923956871032715,1.0
644,1,644,-1,1,-1.1747438418318665,1.1663595849267339,1.8879728686933799,0.5238275232904585,0.9424017083879145,1.4403988122940063,1.0
645,1,645,1,-1,0.7044198066405201,-1.404736690467552,1.8879728686933799,0.5439956197368836,0.9424017083879145,2.15940260887146,0.0
646,1,646,1,1,0.0051591641667492055,-1.404736690467552,1.8879728686933799,0.5364908150914421,0.9424017083879145,2.8684356212615967,0.0
647,1,647,-1,1,0.8928142553801883,1.1663595849267339,1.8879728686933799,0.546017560409928,0.9424017083879145,2.2274057865142822,1.0
648,1,648,-1,1,-0.7880165182980657,1.1663595849267339,1.8879728686933799,0.5279780686492078,0.9424017083879145,1.4363988637924194,1.0
649,1,649,-1,1,-1.4314860185097098,1.1663595849267339,1.8879728686933799,0.5210720416242857,0.9424017083879145,2.920438051223755,1.0
650,1,650,1,1,-0.33538662766971905,-1.404736690467552,1.8879728686933799,0.5328359123479981,0.9424017083879145,2.4874179363250732,0.0
651,1,651,-1,1,-0.11540416205277614,1.1663595849267339,1.8879728686933799,0.5351968709514128,0.9424017083879145,2.184403657913208,1.0
652,1,652,-1,1,1.0563285153357056,1.1663595849267339,1.8879728686933799,0.5477724748197664,0.9424017083879145,1.7383949756622314,1.0
653,1,653,1,1,-0.8373023531490214,-1.404736690467552,1.8879728686933799,0.5274491091455878,0.9424017083879145,3.4804000854492188,0.0
654,1,654,-1,-1,0.38418447482679124,1.1663595849267339,1.8879728686933799,0.5405586987093709,0.9424017083879145,2.5894227027893066,1.0
655,1,655,1,1,-0.582003423736903,-1.404736690467552,1.8879728686933799,0.5301891011815334,0.9424017083879145,2.719428777694702,0.0
656,1,656,1,1,0.7760205957136516,-1.404736690467552,1.8879728686933799,0.5447640741611914,0.9424017083879145,3.2964134216308594,0.0
657,1,657,-1,-1,0.5830066227946009,1.1663595849267339,1.8879728686933799,0.5426925545122755,0.9424017083879145,4.349337100982666,1.0
658,1,658,1,-1,-1.0429456059117217,-1.404736690467552,1.8879728686933799,0.5252420459349695,0.9424017083879145,2.409414291381836,0.0
659,1,659,1,-1,-1.2158965654265605,-1.404736690467552,1.8879728686933799,0.523385852284761,0.9424017083879145,1.9553930759429932,0.0
660,1,660,1,1,0.933698177337289,-1.404736690467552,1.8879728686933799,0.5464563465059709,0.9424017083879145,2.158402442932129,0.0
661,1,661,-1,1,-0.17634531665954323,1.1663595849267339,1.8879728686933799,0.5345428208985262,0.9424017083879145,1.8303937911987305,1.0
662,1,662,1,1,-0.9349332488522795,-1.404736690467552,1.8879728686933799,0.5264012869815656,0.9424017083879145,1.6803958415985107,0.0
663,1,663,-1,1,0.25205217461161333,1.1663595849267339,1.8879728686933799,0.5391405907246863,0.9424017083879145,1.572397232055664,1.0
664,1,664,-1,-1,-1.1432992541298528,1.1663595849267339,1.8879728686933799,0.5241650018692974,0.9424017083879145,2.0503973960876465,1.0
665,1,665,-1,1,-0.6903771503271737,1.1663595849267339,1.8879728686933799,0.5290259817417188,0.9424017083879145,3.19442081451416,1.0
666,1,666,1,1,0.9418872100587996,-1.404736690467552,1.8879728686933799,0.5465442351802036,0.9424017083879145,2.2554070949554443,0.0
667,1,667,1,1,-1.322373816365327,-1.404736690467552,1.8879728686933799,0.5222430867422129,0.9424017083879145,1.9613933563232422,0.0
668,1,668,1,1,-0.05818319946211077,-1.404736690467552,1.8879728686933799,0.5358109940977518,0.9424017083879145,1.459398627281189,0.0
669,1,669,-1,-1,0.8949740125879131,1.1663595849267339,1.8879728686933799,0.5460407399726561,0.9424017083879145,3.5453953742980957,1.0
670,1,670,-1,-1,1.5933558453667622,1.1663595849267339,1.8879728686933799,0.5535361128058658,0.9424017083879145,2.9574379920959473,1.0
671,1,671,-1,1,0.39055502969918604,1.1663595849267339,1.8879728686933799,0.5406270705966135,0.9424017083879145,1.9103927612304688,1.0
672,1,672,-1,1,1.2280939595859013,1.1663595849267339,1.8879728686933799,0.5496159449446899,0.9424017083879145,2.5724217891693115,1.0
673,1,673,-1,1,-0.20052505215518573,1.1663595849267339,1.8879728686933799,0.5342833122400219,0.9424017083879145,5.508253574371338,1.0
674,1,674,-1,-1,-0.5663596107805906,1.1663595849267339,1.8879728686933799,0.5303569981758953,0.9424017083879145,1.7223951816558838,1.0
675,1,675,1,-1,0.8444424051468741,-1.404736690467552,1.8879728686933799,0.5454984102328848,0.9424017083879145,2.5134191513061523,0.0
676,1,676,-1,-1,-1.17157620359783,1.1663595849267339,1.8879728686933799,0.5238615199215998,0.9424017083879145,3.710383415222168,1.0
677,1,677,-1,-1,1.119135296735871,1.1663595849267339,1.8879728686933799,0.5484465476849998,0.9424017083879145,2.3224101066589355,1.0
678,1,678,1,1,0.5181673189579535,-1.404736690467552,1.8879728686933799,0.5419966676296405,0.9424017083879145,2.750430107116699,0.0
679,1,679,-1,-1,0.23379100083147875,1.1663595849267339,1.8879728686933799,0.5389446029434614,0.9424017083879145,1.9553930759429932,1.0
680,1,680,1,1,0.5776187445627535,-1.404736690467552,1.8879728686933799,0.5426347291877436,0.9424017083879145,3.6103906631469727,0.0
681,1,681,1,1,-0.7793618965691379,-1.404736690467552,1.8879728686933799,0.5280709542506711,0.9424017083879145,2.928438425064087,0.0
682,1,682,-1,1,0.39533522549210925,1.1663595849267339,1.8879728686933799,0.5406783739782337,0.9424017083879145,2.94343900680542,1.0
683,1,683,1,1,1.525993014961567,-1.404736690467552,1.8879728686933799,0.5528131422111437,0.9424017083879145,2.3074095249176025,0.0
684,1,684,-1,-1,-1.1860782179185383,1.1663595849267339,1.8879728686933799,0.5237058772644394,0.9424017083879145,1.7993942499160767,1.0
685,1,685,1,1,-0.3673352564018095,-1.404736690467552,1.8879728686933799,0.5324930241561562,0.9424017083879145,2.8454346656799316,0.0
686,1,686,-1,1,0.11360217032796056,1.1663595849267339,1.8879728686933799,0.5376546780732413,0.9424017083879145,1.2954007387161255,1.0
687,1,687,1,1,1.137319730008878,-1.404736690467552,1.8879728686933799,0.5486417118498513,0.9424017083879145,1.695395588874817,0.0
688,1,688,1,1,0.6245879004919539,-1.404736690467552,1.8879728686933799,0.5431388249686285,0.9424017083879145,2.433415412902832,0.0
689,1,689,1,-1,0.004676580927354609,-1.404736690467552,1.8879728686933799,0.5364856357738647,0.9424017083879145,2.2524068355560303,0.0
690,1,690,1,1,0.827521329530586,-1.404736690467552,1.8879728686933799,0.5453168050356557,0.9424017083879145,2.117400646209717,0.0
691,1,691,-1,1,0.7726628526005269,1.1663595849267339,1.8879728686933799,0.5447280372322083,0.9424017083879145,2.203404664993286,1.0
692,1,692,1,1,1.0843680585156608,-1.404736690467552,1.8879728686933799,0.5480734088079408,0.9424017083879145,1.7713946104049683,0.0
693,1,693,1,-1,-0.692807027633175,-1.404736690467552,1.8879728686933799,0.528999903118976,0.9424017083879145,2.8424344062805176,0.0
694,1,694,1,-1,-1.5241174537120064,-1.404736690467552,1.8879728686933799,0.5200778760971644,0.9424017083879145,2.2664074897766113,0.0
695,1,695,1,-1,-0.9495575874737363,-1.404736690467552,1.8879728686933799,0.5262443314806318,0.9424017083879145,2.940438985824585,0.0
696,1,696,-1,-1,-2.067388432468511,1.1663595849267339,1.8879728686933799,0.5142472282421934,0.9424017083879145,2.0133957862854004,1.0
697,1,697,1,-1,-0.37632975717572525,-1.404736690467552,1.8879728686933799,0.5323964908078002,0.9424017083879145,2.1204006671905518,0.0
698,1,698,1,1,-0.25708108824778425,-1.404736690467552,1.8879728686933799,0.5336763254076242,0.9424017083879145,1.948392629623413,0.0
699,1,699,-1,-1,0.20567047835591945,1.1663595849267339,1.8879728686933799,0.5386427998461781,0.9424017083879145,2.2294058799743652,1.0
700,1,700,1,1,0.815878027871619,-1.404736690467552,1.8879728686933799,0.5451918434704383,0.9424017083879145,4.442330360412598,0.0
701,1,701,1,-1,-1.6253176528058937,-1.404736690467552,1.8879728686933799,0.5189917464365666,0.9424017083879145,2.5564210414886475,0.0
702,1,702,-1,1,1.4606595463162744,1.1663595849267339,1.8879728686933799,0.5521119517119082,0.9424017083879145,1.2474013566970825,1.0
703,1,703,-1,-1,-1.1812672355283476,1.1663595849267339,1.8879728686933799,0.5237575110627657,0.9424017083879145,1.8193939924240112,1.0
704,1,704,1,-1,0.570272667101482,-1.404736690467552,1.8879728686933799,0.5425558875185456,0.9424017083879145,5.29426908493042,0.0
705,1,705,1,-1,1.8096683037920134,-1.404736690467552,1.8879728686933799,0.5558576831106289,0.9424017083879145,1.5643973350524902,0.0
706,1,706,1,-1,-1.4149762626392557,-1.404736690467552,1.8879728686933799,0.5212492323383424,0.9424017083879145,1.316400408744812,0.0
707,1,707,-1,1,-0.03451609900305856,1.1663595849267339,1.8879728686933799,0.5360650009082035,0.9424017083879145,2.8544349670410156,1.0
708,1,708,1,1,1.0238578081274023,-1.404736690467552,1.8879728686933799,0.5474239834282939,0.9424017083879145,4.078356742858887,0.0
709,1,709,1,1,-0.08040570538004806,-1.404736690467552,1.8879728686933799,0.5355724913771407,0.9424017083879145,1.6353963613510132,0.0
710,1,710,1,1,0.29616739561324995,-1.404736690467552,1.8879728686933799,0.5396140566905907,0.9424017083879145,2.8474347591400146,0.0
711,1,711,1,1,1.536758362323202,-1.404736690467552,1.8879728686933799,0.5529286811446715,0.9424017083879145,1.8853931427001953,0.0
712,1,712,-1,1,-1.3437030989791974,1.1663595849267339,1.8879728686933799,0.5220141705276834,0.9424017083879145,1.3004006147384644,1.0
713,1,713,-1,-1,0.11225578002880597,1.1663595849267339,1.8879728686933799,0.537640227958995,0.9424017083879145,1.8693933486938477,1.0
714,1,714,-1,-1,-0.9960774042597593,1.1663595849267339,1.8879728686933799,0.5257450582255465,0.9424017083879145,2.203404664993286,1.0
715,1,715,1,1,0.29334031065569705,-1.404736690467552,1.8879728686933799,0.5395837150425217,0.9424017083879145,2.429415225982666,0.0
716,1,716,1,1,0.6593081305910266,-1.404736690467552,1.8879728686933799,0.5435114593317132,0.9424017083879145,5.019289016723633,0.0
717,1,717,1,-1,1.1870558264252349,-1.404736690467552,1.8879728686933799,0.5491755037791541,0.9424017083879145,1.8453936576843262,0.0
718,1,718,-1,1,-0.22521563223514485,1.1663595849267339,1.8879728686933799,0.5340183209494679,0.9424017083879145,1.849393606185913,1.0
719,1,719,-1,1,-1.2632120312825894,1.1663595849267339,1.8879728686933799,0.5228780397376378,0.9424017083879145,3.92136812210083,1.0
720,1,720,-1,-1,0.8813103384628381,1.1663595849267339,1.8879728686933799,0.5458940947894168,0.9424017083879145,3.859372615814209,1.0
721,1,721,-1,-1,-0.48509075974858973,1.1663595849267339,1.8879728686933799,0.5312292149341515,0.9424017083879145,1.3733997344970703,1.0
722,1,722,1,-1,-0.17013129700738028,-1.404736690467552,1.8879728686933799,0.534609512773801,0.9424017083879145,2.3534116744995117,0.0
723,1,723,1,1,1.4431256497077074,-1.404736690467552,1.8879728686933799,0.5519237694223185,0.9424017083879145,2.2434065341949463,0.0
724,1,724,-1,1,2.3296251457433366,1.1663595849267339,1.8879728686933799,0.5614381123324148,0.9424017083879145,1.762394666671753,1.0
725,1,725,1,1,2.502994727897901,-1.404736690467552,1.8879728686933799,0.5632987988439978,0.9424017083879145,1.9303925037384033,0.0
726,1,726,1,-1,-0.40483223596633583,-1.404736690467552,1.8879728686933799,0.5320905883699372,0.9424017083879145,2.0053954124450684,0.0
727,1,727,-1,1,-0.14254355382943673,1.1663595849267339,1.8879728686933799,0.534905597825044,0.9424017083879145,3.0114340782165527,0.0
728,1,728,1,-1,0.026517618625290132,-1.404736690467552,1.8879728686933799,0.536720044392369,0.9424017083879145,2.942439079284668,0.0
729,1,729,-1,-1,-0.07652348650416381,1.1663595849267339,1.8879728686933799,0.5356141572345973,0.9424017083879145,1.245401382446289,1.0
730,1,730,-1,1,0.34844118630776993,1.1663595849267339,1.8879728686933799,0.5401750843867174,0.9424017083879145,2.0793988704681396,1.0
731,1,731,1,-1,0.2516696725854216,-1.404736690467552,1.8879728686933799,0.5391364855272697,0.9424017083879145,1.8843932151794434,0.0
732,1,732,-1,-1,-0.4196476914661578,1.1663595849267339,1.8879728686933799,0.5319315817098941,0.9424017083879145,2.718428611755371,1.0
733,1,733,-1,1,-1.7266057864883584,1.1663595849267339,1.8879728686933799,0.5179046730192797,0.9424017083879145,1.9723937511444092,1.0
734,1,734,1,-1,-0.2447047505439332,-1.404736690467552,1.8879728686933799,0.5338091542715009,0.9424017083879145,2.8064327239990234,0.0
735,1,735,1,1,-0.6752055861702045,-1.404736690467552,1.8879728686933799,0.5291888103327304,0.9424017083879145,2.0423970222473145,0.0
736,1,736,1,1,-0.06187798528889128,-1.404736690467552,1.8879728686933799,0.5357713398627606,0.9424017083879145,2.0963995456695557,0.0
737,1,737,1,-1,0.49333229051539884,-1.404736690467552,1.8879728686933799,0.541730126049142,0.9424017083879145,2.1144003868103027,0.0
738,1,738,-1,-1,1.439904893941002,1.1663595849267339,1.8879728686933799,0.5518892027080325,0.9424017083879145,3.2524166107177734,1.0
739,1,739,1,1,-0.15618502363578646,-1.404736690467552,1.8879728686933799,0.5347591909493314,0.9424017083879145,3.1824216842651367,0.0
740,1,740,-1,1,-0.2602592395936065,1.1663595849267339,1.8879728686933799,0.533642215944664,0.9424017083879145,2.638424873352051,1.0
741,1,741,1,-1,-0.3663695456341021,-1.404736690467552,1.8879728686933799,0.532503388632884,0.9424017083879145,2.2634074687957764,0.0
742,1,742,-1,-1,-0.41059160575528936,1.1663595849267339,1.8879728686933799,0.5320287760176875,0.9424017083879145,1.6353963613510132,1.0
743,1,743,-1,-1,0.41185891817754683,1.1663595849267339,1.8879728686933799,0.540855714268954,0.9424017083879145,2.6074235439300537,1.0
744,1,744,-1,-1,0.40156639499812297,1.1663595849267339,1.8879728686933799,0.5407452499140648,0.9424017083879145,1.9763939380645752,1.0
745,1,745,-1,1,1.8980135149135329,1.1663595849267339,1.8879728686933799,0.5568058468003252,0.9424017083879145,2.2484066486358643,1.0
746,1,746,-1,1,-1.2720305600664394,1.1663595849267339,1.8879728686933799,0.5227833950060985,0.9424017083879145,2.3804128170013428,1.0
747,1,747,1,1,-0.9727734662209797,-1.404736690467552,1.8879728686933799,0.5259951674006201,0.9424017083879145,2.2674076557159424,0.0
748,1,748,-1,-1,-0.6672278473980798,1.1663595849267339,1.8879728686933799,0.5292744312977332,0.9424017083879145,1.9933948516845703,1.0
749,1,749,1,-1,-0.43205223079266336,-1.404736690467552,1.8879728686933799,0.5317984501725137,0.9424017083879145,1.433398962020874,0.0
750,1,750,1,1,-1.1564339881966283,-1.404736690467552,1.8879728686933799,0.5240240335275181,0.9424017083879145,1.7853944301605225,0.0
751,1,751,-1,1,-0.11992319698134755,1.1663595849267339,1.8879728686933799,0.5351483704749597,0.9424017083879145,2.661426067352295,1.0
