,subj_idx,trial_idx,S,X,M,v,a,z,t,rt,response
0,1,0,-1,-1,-0.37595361094558244,-1.6864101442406625,1.1644712593687465,0.3563240051496564,1.0881861983015833,1.4771846532821655,0.0
1,1,1,1,1,0.2579478958580226,0.24003441584794172,1.1644712593687465,0.35358433197162586,1.0881861983015833,2.4291927814483643,0.0
2,1,2,-1,1,0.04025574269223353,-0.35318023913592533,1.1644712593687465,0.3545251805840599,1.0881861983015833,2.9802184104919434,0.0
3,1,3,1,1,0.538047782655362,0.24003441584794172,1.1644712593687465,0.3523737619717256,1.0881861983015833,1.8151803016662598,1.0
4,1,4,-1,-1,0.3562273236949478,-1.6864101442406625,1.1644712593687465,0.35315957590225683,1.0881861983015833,2.103177547454834,0.0
5,1,5,-1,1,-0.024854286574865547,-0.35318023913592533,1.1644712593687465,0.35480658108380525,1.0881861983015833,1.619182825088501,0.0
6,1,6,1,1,0.4406596603912194,0.24003441584794172,1.1644712593687465,0.3527946658874951,1.0881861983015833,2.0731770992279053,1.0
7,1,7,1,1,1.9087848506984348,0.24003441584794172,1.1644712593687465,0.34644954261092,1.0881861983015833,2.356189250946045,0.0
8,1,8,-1,-1,0.9800117020393286,-1.6864101442406625,1.1644712593687465,0.3504636281692378,1.0881861983015833,2.138179302215576,0.0
9,1,9,-1,1,0.7274304100141851,-0.35318023913592533,1.1644712593687465,0.351555264935528,1.0881861983015833,2.2731854915618896,0.0
10,1,10,-1,-1,-2.9460318313695835,-1.6864101442406625,1.1644712593687465,0.3674316840088541,1.0881861983015833,1.9651784896850586,0.0
11,1,11,1,1,1.238179159750867,0.24003441584794172,1.1644712593687465,0.3493478484278406,1.0881861983015833,2.7852094173431396,1.0
12,1,12,-1,1,2.0706386170778726,-0.35318023913592533,1.1644712593687465,0.34575002317808423,1.0881861983015833,2.8032102584838867,0.0
13,1,13,1,1,1.5051986171561542,0.24003441584794172,1.1644712593687465,0.3481938110298949,1.0881861983015833,3.147219181060791,0.0
14,1,14,-1,1,1.104439061683838,-0.35318023913592533,1.1644712593687465,0.3499258627653502,1.0881861983015833,1.478184700012207,0.0
15,1,15,1,-1,-0.2895935933870263,-1.0931954892567954,1.1644712593687465,0.35595076384762436,1.0881861983015833,2.176180839538574,0.0
16,1,16,-1,1,1.4535286183177891,-0.35318023913592533,1.1644712593687465,0.3484171247598781,1.0881861983015833,2.675204277038574,1.0
17,1,17,-1,-1,-2.099888023042562,-1.6864101442406625,1.1644712593687465,0.36377471605476414,1.0881861983015833,1.824180245399475,0.0
18,1,18,1,-1,-2.397157082274415,-1.0931954892567954,1.1644712593687465,0.3650594898871258,1.0881861983015833,1.3981857299804688,0.0
19,1,19,-1,-1,-2.141227994559072,-1.6864101442406625,1.1644712593687465,0.3639533842073537,1.0881861983015833,1.4291852712631226,0.0
20,1,20,-1,1,0.9895397204086054,-0.35318023913592533,1.1644712593687465,0.35042244881237256,1.0881861983015833,2.638202667236328,1.0
21,1,21,-1,1,0.07566322205222953,-0.35318023913592533,1.1644712593687465,0.3543721522027371,1.0881861983015833,1.4721847772598267,0.0
22,1,22,-1,-1,-1.5432243775237744,-1.6864101442406625,1.1644712593687465,0.3613688589264185,1.0881861983015833,1.7791807651519775,0.0
23,1,23,-1,-1,0.3750383382805611,-1.6864101442406625,1.1644712593687465,0.3530782761552794,1.0881861983015833,1.5501837730407715,0.0
24,1,24,1,-1,-2.531973799549546,-1.0931954892567954,1.1644712593687465,0.36564215728940286,1.0881861983015833,1.2311862707138062,0.0
25,1,25,-1,-1,-0.8949697721008575,-1.6864101442406625,1.1644712593687465,0.3585671527686792,1.0881861983015833,1.5601836442947388,0.0
26,1,26,1,-1,1.2016968958558967,-1.0931954892567954,1.1644712593687465,0.3495055219446159,1.0881861983015833,1.3911857604980469,0.0
27,1,27,-1,1,1.0320666999204426,-0.35318023913592533,1.1644712593687465,0.35023865050323344,1.0881861983015833,1.9351787567138672,0.0
28,1,28,1,-1,-2.7661001126049576,-1.0931954892567954,1.1644712593687465,0.3666540330670508,1.0881861983015833,2.4801950454711914,0.0
29,1,29,-1,-1,-2.3546078786405493,-1.6864101442406625,1.1644712593687465,0.36487559552705384,1.0881861983015833,1.7051818370819092,0.0
30,1,30,1,-1,0.9047708868649822,-1.0931954892567954,1.1644712593687465,0.35078881314042637,1.0881861983015833,1.2171862125396729,0.0
31,1,31,-1,-1,-2.0290313124160813,-1.6864101442406625,1.1644712593687465,0.3634684788436149,1.0881861983015833,1.3181864023208618,0.0
32,1,32,-1,1,-0.3466364740304462,-0.35318023913592533,1.1644712593687465,0.3561972987563114,1.0881861983015833,1.434185266494751,0.0
33,1,33,-1,1,1.182116131205828,-0.35318023913592533,1.1644712593687465,0.3495901484917078,1.0881861983015833,1.9731783866882324,0.0
34,1,34,-1,-1,-0.5738807243641726,-1.6864101442406625,1.1644712593687465,0.3571794307923121,1.0881861983015833,1.3161864280700684,0.0
35,1,35,1,1,-0.1372981340383288,0.24003441584794172,1.1644712593687465,0.3552925546769011,1.0881861983015833,3.3232064247131348,1.0
36,1,36,-1,1,4.029825955485503,-0.35318023913592533,1.1644712593687465,0.3372825673601644,1.0881861983015833,1.3241864442825317,0.0
37,1,37,-1,-1,-2.374467780071533,-1.6864101442406625,1.1644712593687465,0.3649614284816767,1.0881861983015833,1.5691834688186646,0.0
38,1,38,1,1,0.09270022015629353,0.24003441584794172,1.1644712593687465,0.35429851961748704,1.0881861983015833,1.1841862201690674,0.0
39,1,39,-1,1,0.14801974921939653,-0.35318023913592533,1.1644712593687465,0.35405943290075137,1.0881861983015833,3.1842164993286133,0.0
40,1,40,1,-1,-0.9534110154909272,-1.0931954892567954,1.1644712593687465,0.3588197312927686,1.0881861983015833,1.5061843395233154,0.0
41,1,41,-1,1,0.5595711455042971,-0.35318023913592533,1.1644712593687465,0.35228073966579104,1.0881861983015833,2.0611772537231445,1.0
42,1,42,-1,-1,-1.432586193182122,-1.6864101442406625,1.1644712593687465,0.3608906892693763,1.0881861983015833,2.657203435897827,0.0
43,1,43,-1,-1,-1.43905853807015,-1.6864101442406625,1.1644712593687465,0.36091866224230407,1.0881861983015833,1.7921806573867798,0.0
44,1,44,-1,-1,0.4375451706805611,-1.6864101442406625,1.1644712593687465,0.35280812647061716,1.0881861983015833,1.1661860942840576,0.0
45,1,45,1,1,0.4066402628311706,0.24003441584794172,1.1644712593687465,0.3529416950868702,1.0881861983015833,1.3801859617233276,0.0
46,1,46,1,-1,-0.2251713384534212,-1.0931954892567954,1.1644712593687465,0.35567233585523833,1.0881861983015833,1.2311862707138062,0.0
47,1,47,1,1,-0.36965683219180145,0.24003441584794172,1.1644712593687465,0.3562967909599525,1.0881861983015833,2.8072104454040527,1.0
48,1,48,-1,1,1.1029066292735958,-0.35318023913592533,1.1644712593687465,0.3499324858194468,1.0881861983015833,1.9161790609359741,0.0
49,1,49,1,1,2.9100810602936464,0.24003441584794172,1.1644712593687465,0.3421220180045752,1.0881861983015833,1.570183515548706,0.0
50,1,50,1,1,0.586026369432139,0.24003441584794172,1.1644712593687465,0.3521664022385472,1.0881861983015833,4.2241411209106445,0.0
51,1,51,1,1,1.9558797350734454,0.24003441584794172,1.1644712593687465,0.34624600217102536,1.0881861983015833,2.1871814727783203,1.0
52,1,52,1,1,1.4171194449455942,0.24003441584794172,1.1644712593687465,0.3485744823850793,1.0881861983015833,1.7911806106567383,0.0
53,1,53,1,1,1.6624607930908715,0.24003441584794172,1.1644712593687465,0.3475141360950622,1.0881861983015833,1.7721809148788452,1.0
54,1,54,-1,-1,-1.8641467019195035,-1.6864101442406625,1.1644712593687465,0.36275586033742885,1.0881861983015833,1.2361862659454346,0.0
55,1,55,-1,1,2.6928873529878876,-0.35318023913592533,1.1644712593687465,0.3430607123726373,1.0881861983015833,1.4891844987869263,0.0
56,1,56,1,-1,-1.786508666711391,-1.0931954892567954,1.1644712593687465,0.36242031476706543,1.0881861983015833,1.9841781854629517,0.0
57,1,57,-1,-1,-1.3653077128929447,-1.6864101442406625,1.1644712593687465,0.36059991689239246,1.0881861983015833,1.342186450958252,0.0
58,1,58,-1,1,0.15741989975454662,-0.35318023913592533,1.1644712593687465,0.35401880617875403,1.0881861983015833,1.453184962272644,0.0
59,1,59,1,-1,-2.9515551755571794,-1.0931954892567954,1.1644712593687465,0.36745555547431263,1.0881861983015833,1.6261827945709229,0.0
60,1,60,-1,-1,-2.388789077132232,-1.6864101442406625,1.1644712593687465,0.36502332401751414,1.0881861983015833,1.2481863498687744,0.0
61,1,61,1,-1,-0.9539135254359852,-1.0931954892567954,1.1644712593687465,0.35882190310180107,1.0881861983015833,1.6471824645996094,0.0
62,1,62,-1,-1,-1.228156794344768,-1.6864101442406625,1.1644712593687465,0.3600071612531397,1.0881861983015833,1.456184983253479,0.0
63,1,63,1,1,1.6504123056762028,0.24003441584794172,1.1644712593687465,0.34756620872377747,1.0881861983015833,4.193143367767334,0.0
64,1,64,1,1,-0.14994893040037405,0.24003441584794172,1.1644712593687465,0.35534723043820127,1.0881861983015833,5.343060493469238,1.0
65,1,65,-1,-1,-1.1464884833145836,-1.6864101442406625,1.1644712593687465,0.3596541971430642,1.0881861983015833,1.2881863117218018,0.0
66,1,66,1,1,0.0011564368260937874,0.24003441584794172,1.1644712593687465,0.35469416475338494,1.0881861983015833,3.7821731567382812,1.0
67,1,67,-1,1,0.14369742441418398,-0.35318023913592533,1.1644712593687465,0.35407811365353153,1.0881861983015833,2.5231971740722656,0.0
68,1,68,-1,1,1.7067786624712542,-0.35318023913592533,1.1644712593687465,0.34732259769872503,1.0881861983015833,1.4511849880218506,0.0
69,1,69,1,1,1.7983597072503499,0.24003441584794172,1.1644712593687465,0.34692679152173317,1.0881861983015833,4.334133148193359,1.0
70,1,70,-1,1,1.3480115053844441,-0.35318023913592533,1.1644712593687465,0.3488731615432333,1.0881861983015833,2.6872048377990723,0.0
71,1,71,1,-1,-0.006806635535329009,-1.0931954892567954,1.1644712593687465,0.35472858053490486,1.0881861983015833,1.3221864700317383,0.0
72,1,72,-1,-1,0.15094724335221987,-1.6864101442406625,1.1644712593687465,0.35404678049802246,1.0881861983015833,1.453184962272644,0.0
73,1,73,1,1,1.3831062472965032,0.24003441584794172,1.1644712593687465,0.34872148478891984,1.0881861983015833,1.7731809616088867,1.0
74,1,74,1,1,0.23672184678760566,0.24003441584794172,1.1644712593687465,0.35367606931045475,1.0881861983015833,3.2592110633850098,1.0
75,1,75,1,1,-0.6717538054681613,0.24003441584794172,1.1644712593687465,0.3576024306625978,1.0881861983015833,3.4411978721618652,1.0
76,1,76,-1,1,-0.9142037383838626,-0.35318023913592533,1.1644712593687465,0.3586502804801093,1.0881861983015833,2.2711853981018066,0.0
77,1,77,-1,1,0.6529979649819553,-0.35318023913592533,1.1644712593687465,0.35187695619361997,1.0881861983015833,1.3791859149932861,0.0
78,1,78,1,1,-0.10170786425984679,0.24003441584794172,1.1644712593687465,0.35513873628955783,1.0881861983015833,3.0542221069335938,0.0
79,1,79,1,1,0.457094049586772,0.24003441584794172,1.1644712593687465,0.35272363773123877,1.0881861983015833,1.3661861419677734,0.0
80,1,80,-1,1,1.5554040979937667,-0.35318023913592533,1.1644712593687465,0.34797682683319453,1.0881861983015833,1.4901845455169678,0.0
81,1,81,1,-1,0.9347162985056621,-1.0931954892567954,1.1644712593687465,0.3506593913924158,1.0881861983015833,1.4511849880218506,0.0
82,1,82,-1,1,0.030663224629913,-0.35318023913592533,1.1644712593687465,0.35456663870359906,1.0881861983015833,2.109177827835083,0.0
83,1,83,1,1,1.965458620679358,0.24003441584794172,1.1644712593687465,0.34620460296990613,1.0881861983015833,2.0601773262023926,0.0
84,1,84,1,1,2.6240431805426208,0.24003441584794172,1.1644712593687465,0.3433582515497613,1.0881861983015833,2.5071964263916016,1.0
85,1,85,1,1,1.0637299206463262,0.24003441584794172,1.1644712593687465,0.35010180451750583,1.0881861983015833,1.54918372631073,1.0
86,1,86,-1,1,1.2007297093507667,-0.35318023913592533,1.1644712593687465,0.3495097020497234,1.0881861983015833,1.8521798849105835,0.0
87,1,87,-1,1,1.5537238979851862,-0.35318023913592533,1.1644712593687465,0.3479840885273975,1.0881861983015833,3.5411906242370605,0.0
88,1,88,-1,-1,-1.1666739918756637,-1.6864101442406625,1.1644712593687465,0.3597414373464651,1.0881861983015833,1.2231862545013428,0.0
89,1,89,-1,1,-1.7800209748140166,-0.35318023913592533,1.1644712593687465,0.3623922754655528,1.0881861983015833,1.5281840562820435,0.0
90,1,90,-1,1,2.8559943993469314,-0.35318023913592533,1.1644712593687465,0.3423557763608728,1.0881861983015833,1.1921861171722412,0.0
91,1,91,1,1,1.2958417398898763,0.24003441584794172,1.1644712593687465,0.34909863522596724,1.0881861983015833,1.8461799621582031,0.0
92,1,92,-1,-1,-1.61451079087408,-1.6864101442406625,1.1644712593687465,0.3616769532794334,1.0881861983015833,1.2521862983703613,0.0
93,1,93,1,-1,-0.3998697158256037,-1.0931954892567954,1.1644712593687465,0.3564273687011853,1.0881861983015833,1.3791859149932861,0.0
94,1,94,1,1,1.8616625770279054,0.24003441584794172,1.1644712593687465,0.3466532014252268,1.0881861983015833,2.364189624786377,1.0
95,1,95,1,-1,-1.3846917205985994,-1.0931954892567954,1.1644712593687465,0.36068369307122145,1.0881861983015833,2.0051779747009277,0.0
96,1,96,1,-1,-0.9639624783526701,-1.0931954892567954,1.1644712593687465,0.35886533389740205,1.0881861983015833,3.5901870727539062,0.0
97,1,97,-1,1,0.8637579673103516,-0.35318023913592533,1.1644712593687465,0.3509660677997868,1.0881861983015833,1.4021856784820557,0.0
98,1,98,-1,1,1.2619162027488982,-0.35318023913592533,1.1644712593687465,0.34924525876788637,1.0881861983015833,2.7352070808410645,1.0
99,1,99,1,-1,0.06240973886168999,-1.0931954892567954,1.1644712593687465,0.35442943272979516,1.0881861983015833,1.949178695678711,0.0
100,1,100,1,-1,-1.1854618047390026,-1.0931954892567954,1.1644712593687465,0.35982263681739723,1.0881861983015833,1.4471850395202637,0.0
101,1,101,-1,-1,-1.3611793579961655,-1.6864101442406625,1.1644712593687465,0.3605820744625217,1.0881861983015833,1.6091830730438232,0.0
102,1,102,1,1,0.8454791258110133,0.24003441584794172,1.1644712593687465,0.3510450675359347,1.0881861983015833,2.2361836433410645,1.0
103,1,103,1,-1,-2.53108048437569,-1.0931954892567954,1.1644712593687465,0.36563829645046325,1.0881861983015833,2.7012054920196533,0.0
104,1,104,-1,1,2.198430294957999,-0.35318023913592533,1.1644712593687465,0.34519771745155414,1.0881861983015833,1.3691860437393188,0.0
105,1,105,1,1,0.14977319083728313,0.24003441584794172,1.1644712593687465,0.35405185466198996,1.0881861983015833,1.5081843137741089,0.0
106,1,106,-1,-1,-0.5861339591328589,-1.6864101442406625,1.1644712593687465,0.35723238832322124,1.0881861983015833,1.453184962272644,0.0
107,1,107,1,-1,-2.025153384823515,-1.0931954892567954,1.1644712593687465,0.36345171874114207,1.0881861983015833,1.85017991065979,0.0
108,1,108,-1,-1,-2.256749913108731,-1.6864101442406625,1.1644712593687465,0.3644526609850995,1.0881861983015833,1.810180425643921,0.0
109,1,109,-1,-1,-0.601983675512448,-1.6864101442406625,1.1644712593687465,0.35730088956888556,1.0881861983015833,1.4551849365234375,0.0
110,1,110,-1,1,1.7291446341222692,-0.35318023913592533,1.1644712593687465,0.3472259337028594,1.0881861983015833,1.895179271697998,1.0
111,1,111,1,-1,-1.3695517153892813,-1.0931954892567954,1.1644712593687465,0.3606182591422245,1.0881861983015833,2.0591771602630615,0.0
112,1,112,1,1,2.3106031643199234,0.24003441584794172,1.1644712593687465,0.3447129150048094,1.0881861983015833,4.7361040115356445,0.0
113,1,113,-1,-1,-1.621038826596756,-1.6864101442406625,1.1644712593687465,0.36170516694383187,1.0881861983015833,1.8161803483963013,0.0
114,1,114,1,-1,-0.9641123132794458,-1.0931954892567954,1.1644712593687465,0.3588659814723417,1.0881861983015833,1.2541862726211548,0.0
115,1,115,1,-1,-0.1282689425754422,-1.0931954892567954,1.1644712593687465,0.35525353121126063,1.0881861983015833,1.3881858587265015,0.0
116,1,116,1,-1,-1.5931694638741405,-1.0931954892567954,1.1644712593687465,0.36158471771832845,1.0881861983015833,1.5581836700439453,0.0
117,1,117,-1,-1,-1.5857616593298864,-1.6864101442406625,1.1644712593687465,0.3615527017612749,1.0881861983015833,1.3761860132217407,0.0
118,1,118,-1,-1,-1.4135016876350757,-1.6864101442406625,1.1644712593687465,0.3608082075156621,1.0881861983015833,1.3191864490509033,0.0
119,1,119,-1,-1,0.6810860410741895,-1.6864101442406625,1.1644712593687465,0.35175556170588573,1.0881861983015833,1.596183180809021,0.0
120,1,120,1,1,-1.171205310780321,0.24003441584794172,1.1644712593687465,0.3597610213555437,1.0881861983015833,3.3692030906677246,1.0
121,1,121,1,1,1.3580031065123306,0.24003441584794172,1.1644712593687465,0.3488299786176181,1.0881861983015833,1.9811782836914062,1.0
122,1,122,1,1,-0.18782893622012042,0.24003441584794172,1.1644712593687465,0.355510944887235,1.0881861983015833,2.371190071105957,0.0
123,1,123,1,1,2.4282792577856966,0.24003441584794172,1.1644712593687465,0.34420432805004847,1.0881861983015833,1.3721860647201538,0.0
124,1,124,1,-1,-0.9812190612261047,-1.0931954892567954,1.1644712593687465,0.35893991551100507,1.0881861983015833,1.8921793699264526,0.0
125,1,125,1,1,2.0500326030168,0.24003441584794172,1.1644712593687465,0.3458390807736623,1.0881861983015833,1.211186170578003,0.0
126,1,126,1,1,1.0078298979458893,0.24003441584794172,1.1644712593687465,0.3503434000827474,1.0881861983015833,1.434185266494751,0.0
127,1,127,-1,1,1.6835829750391718,-0.35318023913592533,1.1644712593687465,0.34742284766188425,1.0881861983015833,2.108177661895752,0.0
128,1,128,-1,-1,-0.7192301497612961,-1.6864101442406625,1.1644712593687465,0.35780761974269115,1.0881861983015833,1.7491812705993652,0.0
129,1,129,1,-1,-0.809972880263514,-1.0931954892567954,1.1644712593687465,0.35819980279035696,1.0881861983015833,2.630202293395996,0.0
130,1,130,1,-1,-0.9218389733537424,-1.0931954892567954,1.1644712593687465,0.358683279373834,1.0881861983015833,1.5781834125518799,0.0
131,1,131,1,-1,-0.6982375373126881,-1.0931954892567954,1.1644712593687465,0.3577168912988478,1.0881861983015833,1.527184009552002,0.0
132,1,132,-1,-1,-0.0490973990629594,-1.6864101442406625,1.1644712593687465,0.35491135793686956,1.0881861983015833,2.400191307067871,0.0
133,1,133,-1,-1,-1.5110335299935522,-1.6864101442406625,1.1644712593687465,0.36122973257853946,1.0881861983015833,1.3551862239837646,0.0
134,1,134,-1,1,0.44761577787450924,-0.35318023913592533,1.1644712593687465,0.3527646020869083,1.0881861983015833,2.034177541732788,0.0
135,1,135,1,1,1.4386565397990494,0.24003441584794172,1.1644712593687465,0.34848140073048567,1.0881861983015833,1.4251853227615356,0.0
136,1,136,-1,-1,-1.095320503984445,-1.6864101442406625,1.1644712593687465,0.3594330531024834,1.0881861983015833,1.8201802968978882,0.0
137,1,137,-1,1,0.5600322917434597,-0.35318023913592533,1.1644712593687465,0.3522787466274893,1.0881861983015833,6.206997871398926,1.0
138,1,138,1,-1,-1.5130865711038226,-1.0931954892567954,1.1644712593687465,0.36123860566308463,1.0881861983015833,3.34120512008667,0.0
139,1,139,-1,1,0.939398579915004,-0.35318023913592533,1.1644712593687465,0.3506391549350932,1.0881861983015833,1.6521824598312378,0.0
140,1,140,-1,-1,-2.207761456047731,-1.6864101442406625,1.1644712593687465,0.36424093667082885,1.0881861983015833,1.336186408996582,0.0
141,1,141,-1,1,2.1891206618785426,-0.35318023913592533,1.1644712593687465,0.3452379529641241,1.0881861983015833,3.188216209411621,1.0
142,1,142,-1,1,2.8590963686174256,-0.35318023913592533,1.1644712593687465,0.3423423698901226,1.0881861983015833,1.271186351776123,0.0
143,1,143,-1,1,0.8817927543608545,-0.35318023913592533,1.1644712593687465,0.35088812284804993,1.0881861983015833,1.308186411857605,0.0
144,1,144,1,-1,-1.9440629083388963,-1.0931954892567954,1.1644712593687465,0.36310125198718396,1.0881861983015833,1.213186264038086,0.0
145,1,145,-1,-1,-2.215584612428646,-1.6864101442406625,1.1644712593687465,0.36427474774632607,1.0881861983015833,2.0731770992279053,0.0
146,1,146,1,-1,-1.91790660364663,-1.0931954892567954,1.1644712593687465,0.3629882064657068,1.0881861983015833,1.7511811256408691,0.0
147,1,147,-1,1,1.2898683820611427,-0.35318023913592533,1.1644712593687465,0.34912445161550176,1.0881861983015833,2.5131967067718506,0.0
148,1,148,1,1,0.6612832585303156,0.24003441584794172,1.1644712593687465,0.3518411477971058,1.0881861983015833,2.105177640914917,0.0
149,1,149,1,-1,-0.5269009198033319,-1.0931954892567954,1.1644712593687465,0.35697638771845436,1.0881861983015833,1.4861845970153809,0.0
150,1,150,1,1,0.41543322366328406,0.24003441584794172,1.1644712593687465,0.3529036925917055,1.0881861983015833,1.8901793956756592,1.0
151,1,151,1,1,0.6078529217779477,0.24003441584794172,1.1644712593687465,0.35207206957110776,1.0881861983015833,2.7952098846435547,1.0
152,1,152,1,-1,0.1774579489926038,-1.0931954892567954,1.1644712593687465,0.35393220328311753,1.0881861983015833,1.9111790657043457,0.0
153,1,153,-1,1,1.4760436026104764,-0.35318023913592533,1.1644712593687465,0.34831981674292534,1.0881861983015833,1.968178391456604,0.0
154,1,154,-1,1,1.6946270384088669,-0.35318023913592533,1.1644712593687465,0.34737511607603744,1.0881861983015833,2.143179416656494,0.0
155,1,155,1,-1,-2.179657607472952,-1.0931954892567954,1.1644712593687465,0.36411947401564765,1.0881861983015833,1.5571836233139038,0.0
156,1,156,-1,-1,-2.280628987999384,-1.6864101442406625,1.1644712593687465,0.3645558644958846,1.0881861983015833,1.2481863498687744,0.0
157,1,157,-1,1,1.0176963091205768,-0.35318023913592533,1.1644712593687465,0.35030075821840634,1.0881861983015833,2.404191493988037,0.0
158,1,158,-1,1,0.8329118790450573,-0.35318023913592533,1.1644712593687465,0.35109938220235654,1.0881861983015833,2.7062058448791504,0.0
159,1,159,-1,1,-0.15265310924428666,-0.35318023913592533,1.1644712593687465,0.3553589176895609,1.0881861983015833,1.5561836957931519,0.0
160,1,160,1,1,0.5530238623447568,0.24003441584794172,1.1644712593687465,0.3523090365161197,1.0881861983015833,3.7341766357421875,0.0
161,1,161,-1,-1,-2.462835279274333,-1.6864101442406625,1.1644712593687465,0.36534334596377305,1.0881861983015833,1.3231863975524902,0.0
162,1,162,1,-1,-0.5989699161954272,-1.0931954892567954,1.1644712593687465,0.35728786433471704,1.0881861983015833,1.213186264038086,0.0
163,1,163,-1,1,1.26954425781881,-0.35318023913592533,1.1644712593687465,0.34921229090513284,1.0881861983015833,1.924178957939148,0.0
164,1,164,-1,1,0.10973389895890628,-0.35318023913592533,1.1644712593687465,0.35422490137800056,1.0881861983015833,1.8961793184280396,0.0
165,1,165,-1,-1,0.7110229148268981,-1.6864101442406625,1.1644712593687465,0.3516261768579652,1.0881861983015833,1.5291839838027954,0.0
166,1,166,1,-1,-0.38186315910660884,-1.0931954892567954,1.1644712593687465,0.35634954575875305,1.0881861983015833,1.755181074142456,0.0
167,1,167,1,-1,-1.5169659256296022,-1.0931954892567954,1.1644712593687465,0.3612553719326522,1.0881861983015833,1.4811846017837524,0.0
168,1,168,1,-1,-1.847818347127223,-1.0931954892567954,1.1644712593687465,0.3626852904536446,1.0881861983015833,1.824180245399475,0.0
169,1,169,-1,-1,-0.7300041950238026,-1.6864101442406625,1.1644712593687465,0.3578541843312081,1.0881861983015833,1.33518648147583,0.0
170,1,170,1,-1,-2.0713058481980045,-1.0931954892567954,1.1644712593687465,0.3636511861105205,1.0881861983015833,1.4291852712631226,0.0
171,1,171,-1,-1,-1.7862986824687612,-1.6864101442406625,1.1644712593687465,0.3624194072314449,1.0881861983015833,2.0021779537200928,0.0
172,1,172,1,1,1.9221678356337928,0.24003441584794172,1.1644712593687465,0.3463917023873586,1.0881861983015833,1.3181864023208618,0.0
173,1,173,1,-1,0.2879350755296326,-1.0931954892567954,1.1644712593687465,0.35345472970542313,1.0881861983015833,1.2861863374710083,0.0
174,1,174,1,-1,0.5527102908591763,-1.0931954892567954,1.1644712593687465,0.3523103917477752,1.0881861983015833,2.370190143585205,0.0
175,1,175,-1,1,0.5553076210886965,-0.35318023913592533,1.1644712593687465,0.35229916628784497,1.0881861983015833,1.670182228088379,0.0
176,1,176,-1,1,2.1902955996149007,-0.35318023913592533,1.1644712593687465,0.34523287497429817,1.0881861983015833,1.1941862106323242,0.0
177,1,177,1,1,0.8420117843629332,0.24003441584794172,1.1644712593687465,0.35106005311691596,1.0881861983015833,1.6561824083328247,1.0
178,1,178,1,1,1.4250478972965228,0.24003441584794172,1.1644712593687465,0.34854021622856135,1.0881861983015833,3.554189682006836,1.0
179,1,179,-1,-1,-1.3351607200962996,-1.6864101442406625,1.1644712593687465,0.3604696239262506,1.0881861983015833,1.6031830310821533,0.0
180,1,180,1,1,0.04429146774682968,0.24003441584794172,1.1644712593687465,0.3545077384931873,1.0881861983015833,3.2432122230529785,1.0
181,1,181,1,-1,-0.9343076757409436,-1.0931954892567954,1.1644712593687465,0.3587371681390892,1.0881861983015833,1.483184576034546,0.0
182,1,182,1,1,0.022743716593685015,0.24003441584794172,1.1644712593687465,0.35460086620348225,1.0881861983015833,1.4431850910186768,0.0
183,1,183,1,-1,-1.2358992548850727,-1.0931954892567954,1.1644712593687465,0.3600406235674686,1.0881861983015833,1.36418616771698,0.0
184,1,184,1,1,1.3403631612972382,0.24003441584794172,1.1644712593687465,0.34890621709354697,1.0881861983015833,1.2531863451004028,0.0
185,1,185,1,1,3.0895879530126984,0.24003441584794172,1.1644712593687465,0.34134620312801217,1.0881861983015833,2.307187080383301,1.0
186,1,186,-1,-1,-0.2767174321548238,-1.6864101442406625,1.1644712593687465,0.35589511407682367,1.0881861983015833,1.2001862525939941,0.0
187,1,187,1,1,-0.1489008654489523,0.24003441584794172,1.1644712593687465,0.35534270078271785,1.0881861983015833,1.277186393737793,0.0
188,1,188,-1,1,-0.03602044624673306,-0.35318023913592533,1.1644712593687465,0.35485484036040627,1.0881861983015833,1.5581836700439453,1.0
189,1,189,-1,-1,-1.811170917402037,-1.6864101442406625,1.1644712593687465,0.3625269031029533,1.0881861983015833,1.302186369895935,0.0
190,1,190,1,-1,-0.05325800136813541,-1.0931954892567954,1.1644712593687465,0.3549293397375399,1.0881861983015833,1.8001805543899536,0.0
191,1,191,-1,-1,-0.44606096815648777,-1.6864101442406625,1.1644712593687465,0.3566270037134267,1.0881861983015833,1.4461851119995117,0.0
192,1,192,-1,1,2.3303194153355467,-0.35318023913592533,1.1644712593687465,0.34462770289614725,1.0881861983015833,1.8291802406311035,0.0
193,1,193,1,-1,-1.2884853337999986,-1.0931954892567954,1.1644712593687465,0.36026789652453645,1.0881861983015833,1.430185317993164,0.0
194,1,194,-1,-1,-2.868170521436681,-1.6864101442406625,1.1644712593687465,0.36709517346243636,1.0881861983015833,1.2821863889694214,0.0
195,1,195,-1,1,0.4936048823760102,-0.35318023913592533,1.1644712593687465,0.3525658407419168,1.0881861983015833,1.2531863451004028,0.0
196,1,196,-1,1,0.33005042503400683,-0.35318023913592533,1.1644712593687465,0.3532727104292704,1.0881861983015833,1.3551862239837646,0.0
197,1,197,1,1,1.1697913544136225,0.24003441584794172,1.1644712593687465,0.34964341522169723,1.0881861983015833,2.9392166137695312,1.0
198,1,198,-1,1,0.9559092622272808,-0.35318023913592533,1.1644712593687465,0.35056779704589996,1.0881861983015833,1.968178391456604,0.0
199,1,199,-1,-1,-2.1421981521590183,-1.6864101442406625,1.1644712593687465,0.36395757715330274,1.0881861983015833,1.5331839323043823,0.0
200,1,200,-1,1,1.4014696252438417,-0.35318023913592533,1.1644712593687465,0.34864211969279624,1.0881861983015833,1.8651797771453857,0.0
201,1,201,1,-1,-0.35156076794158797,-1.0931954892567954,1.1644712593687465,0.3562185811729081,1.0881861983015833,1.9691784381866455,0.0
202,1,202,-1,-1,-1.4418414441244234,-1.6864101442406625,1.1644712593687465,0.36093068974656467,1.0881861983015833,1.435185194015503,0.0
203,1,203,-1,1,1.008984379222817,-0.35318023913592533,1.1644712593687465,0.35033841050415354,1.0881861983015833,2.083176851272583,0.0
204,1,204,1,-1,-2.2662989194574426,-1.0931954892567954,1.1644712593687465,0.3644939310503851,1.0881861983015833,1.4231853485107422,0.0
205,1,205,-1,1,-0.4043191326122135,-0.35318023913592533,1.1644712593687465,0.35644659873565804,1.0881861983015833,1.901179313659668,0.0
206,1,206,-1,-1,1.00369109739394,-1.6864101442406625,1.1644712593687465,0.3503612876579301,1.0881861983015833,1.876179575920105,1.0
207,1,207,1,-1,-2.5540934053245077,-1.0931954892567954,1.1644712593687465,0.3657377565110483,1.0881861983015833,1.3121864795684814,0.0
208,1,208,-1,1,2.573851828315558,-0.35318023913592533,1.1644712593687465,0.34357517468370197,1.0881861983015833,1.899179220199585,0.0
209,1,209,1,1,0.27293151665758797,0.24003441584794172,1.1644712593687465,0.3535195739239264,1.0881861983015833,2.662203788757324,0.0
210,1,210,-1,-1,-2.784720301839704,-1.6864101442406625,1.1644712593687465,0.3667345080816528,1.0881861983015833,2.0211777687072754,0.0
211,1,211,1,-1,-2.982559933923632,-1.0931954892567954,1.1644712593687465,0.36758955563676093,1.0881861983015833,1.9701783657073975,0.0
212,1,212,1,1,0.5796823735703274,0.24003441584794172,1.1644712593687465,0.35219382049693215,1.0881861983015833,2.835211753845215,0.0
213,1,213,-1,1,-0.3266194877870181,-0.35318023913592533,1.1644712593687465,0.356110786893305,1.0881861983015833,4.884093284606934,1.0
214,1,214,1,1,0.44092712568802717,0.24003441584794172,1.1644712593687465,0.3527935099232138,1.0881861983015833,4.282136917114258,0.0
215,1,215,1,1,0.7004026484700481,0.24003441584794172,1.1644712593687465,0.35167207682597146,1.0881861983015833,2.4331929683685303,1.0
216,1,216,-1,1,1.0415846778309454,-0.35318023913592533,1.1644712593687465,0.3501975145404528,1.0881861983015833,2.33318829536438,0.0
217,1,217,1,-1,-0.3860858605382754,-1.0931954892567954,1.1644712593687465,0.35636779594703466,1.0881861983015833,3.4301986694335938,0.0
218,1,218,1,1,2.7987884286260916,0.24003441584794172,1.1644712593687465,0.3426030161322331,1.0881861983015833,3.0082197189331055,1.0
219,1,219,1,-1,-1.2741459118159484,-1.0931954892567954,1.1644712593687465,0.3602059226541851,1.0881861983015833,1.3741860389709473,0.0
220,1,220,1,1,1.942713111516286,0.24003441584794172,1.1644712593687465,0.3463029072974805,1.0881861983015833,1.9991779327392578,0.0
221,1,221,-1,-1,-0.7985247968361456,-1.6864101442406625,1.1644712593687465,0.35815032506113686,1.0881861983015833,1.1901861429214478,0.0
222,1,222,-1,1,1.8017622633420407,-0.35318023913592533,1.1644712593687465,0.3469120859380406,1.0881861983015833,2.2561845779418945,0.0
223,1,223,-1,-1,0.49843494900907315,-1.6864101442406625,1.1644712593687465,0.3525449655683123,1.0881861983015833,2.2071824073791504,0.0
224,1,224,-1,1,2.2879812312930423,-0.35318023913592533,1.1644712593687465,0.34481068524590164,1.0881861983015833,2.9812185764312744,0.0
225,1,225,1,-1,1.2491004583336047,-1.0931954892567954,1.1644712593687465,0.3493006474218874,1.0881861983015833,1.2571862936019897,0.0
226,1,226,-1,1,2.869150084791078,-0.35318023913592533,1.1644712593687465,0.34229891850809424,1.0881861983015833,1.7791807651519775,0.0
227,1,227,1,1,-1.0392496692666624,0.24003441584794172,1.1644712593687465,0.3591907193009427,1.0881861983015833,1.201186180114746,0.0
228,1,228,-1,1,0.3939844786454567,-0.35318023913592533,1.1644712593687465,0.3529963924051577,1.0881861983015833,2.04117751121521,0.0
229,1,229,-1,1,0.8954090705027933,-0.35318023913592533,1.1644712593687465,0.35082927418509946,1.0881861983015833,1.8921793699264526,0.0
230,1,230,-1,1,0.5474782047015023,-0.35318023913592533,1.1644712593687465,0.3523330044186041,1.0881861983015833,1.386185884475708,1.0
231,1,231,1,1,1.9780494058580778,0.24003441584794172,1.1644712593687465,0.34615018657228874,1.0881861983015833,2.2241830825805664,1.0
232,1,232,-1,-1,-0.5621443958362929,-1.6864101442406625,1.1644712593687465,0.3571287072901098,1.0881861983015833,1.5791833400726318,0.0
233,1,233,1,-1,-1.0017896208206283,-1.0931954892567954,1.1644712593687465,0.3590288198751268,1.0881861983015833,1.2861863374710083,0.0
234,1,234,1,1,-0.11482050741109684,0.24003441584794172,1.1644712593687465,0.3551954081168827,1.0881861983015833,1.6521824598312378,1.0
235,1,235,1,1,-0.9407575634479264,0.24003441584794172,1.1644712593687465,0.35876504405382115,1.0881861983015833,3.0572221279144287,0.0
236,1,236,-1,1,1.4613481999678604,-0.35318023913592533,1.1644712593687465,0.3483833291340906,1.0881861983015833,1.3311864137649536,0.0
237,1,237,1,1,-0.6878130553151784,0.24003441584794172,1.1644712593687465,0.35767183749566717,1.0881861983015833,3.3482046127319336,0.0
238,1,238,-1,1,1.5900917195515016,-0.35318023913592533,1.1644712593687465,0.3478269096214961,1.0881861983015833,1.2661863565444946,0.0
239,1,239,1,1,1.6744346614156977,0.24003441584794172,1.1644712593687465,0.3474623859642695,1.0881861983015833,1.5391838550567627,0.0
240,1,240,-1,-1,-3.1015869261625255,-1.6864101442406625,1.1644712593687465,0.36810398107130965,1.0881861983015833,2.153179883956909,0.0
241,1,241,-1,1,1.2240254174674907,-0.35318023913592533,1.1644712593687465,0.34940901980491784,1.0881861983015833,1.761181116104126,0.0
242,1,242,1,1,0.810435538305932,0.24003441584794172,1.1644712593687465,0.35119652320486616,1.0881861983015833,3.4181995391845703,0.0
243,1,243,-1,-1,-1.7172021582053567,-1.6864101442406625,1.1644712593687465,0.36212077740932297,1.0881861983015833,1.201186180114746,0.0
244,1,244,1,1,3.1499725282418423,0.24003441584794172,1.1644712593687465,0.34108522567434396,1.0881861983015833,1.4771846532821655,0.0
245,1,245,-1,1,1.548849878926541,-0.35318023913592533,1.1644712593687465,0.34800515365997864,1.0881861983015833,1.31118643283844,0.0
246,1,246,1,1,0.4302899106278997,0.24003441584794172,1.1644712593687465,0.35283948314220187,1.0881861983015833,1.6421825885772705,0.0
247,1,247,-1,-1,0.5790096798715814,-1.6864101442406625,1.1644712593687465,0.35219672782695693,1.0881861983015833,1.3781859874725342,0.0
248,1,248,1,1,-0.03353758348349056,0.24003441584794172,1.1644712593687465,0.35484410961999285,1.0881861983015833,3.0092198848724365,0.0
249,1,249,1,1,2.3464651545549238,0.24003441584794172,1.1644712593687465,0.3445579222627144,1.0881861983015833,1.2581863403320312,0.0
250,1,250,-1,1,1.1203584439554763,-0.35318023913592533,1.1644712593687465,0.3498570604291003,1.0881861983015833,1.5101842880249023,0.0
251,1,251,-1,1,1.8269484553844095,-0.35318023913592533,1.1644712593687465,0.3468032331682418,1.0881861983015833,1.3371864557266235,0.0
252,1,252,1,-1,-2.097715416090822,-1.0931954892567954,1.1644712593687465,0.3637653262159198,1.0881861983015833,1.807180404663086,0.0
253,1,253,1,-1,-0.26858797604142626,-1.0931954892567954,1.1644712593687465,0.3558599791976243,1.0881861983015833,1.6381826400756836,0.0
254,1,254,1,-1,-1.616085506998298,-1.0931954892567954,1.1644712593687465,0.36168375908046435,1.0881861983015833,2.4141921997070312,0.0
255,1,255,-1,1,1.7469676596799055,-0.35318023913592533,1.1644712593687465,0.34714890396788084,1.0881861983015833,1.3091864585876465,0.0
256,1,256,1,1,1.4512353143897252,0.24003441584794172,1.1644712593687465,0.34842703624169885,1.0881861983015833,3.212214469909668,0.0
257,1,257,1,-1,-1.0644637382387048,-1.0931954892567954,1.1644712593687465,0.35929969255267075,1.0881861983015833,2.036177635192871,0.0
258,1,258,1,-1,-1.550590755145587,-1.0931954892567954,1.1644712593687465,0.3614006958395243,1.0881861983015833,1.1881861686706543,0.0
259,1,259,1,-1,-1.0352929264839574,-1.0931954892567954,1.1644712593687465,0.35917361856532715,1.0881861983015833,1.3371864557266235,0.0
260,1,260,1,-1,0.12068368325806733,-1.0931954892567954,1.1644712593687465,0.3541775772589889,1.0881861983015833,1.2401862144470215,0.0
261,1,261,1,1,0.30176753739043083,0.24003441584794172,1.1644712593687465,0.35339494687742945,1.0881861983015833,3.169217586517334,1.0
262,1,262,1,1,1.941255228354267,0.24003441584794172,1.1644712593687465,0.3463092081555047,1.0881861983015833,3.5181922912597656,1.0
263,1,263,1,1,-0.6752142169684165,0.24003441584794172,1.1644712593687465,0.3576173862928817,1.0881861983015833,1.2791863679885864,0.0
264,1,264,-1,-1,-1.757736716623391,-1.6864101442406625,1.1644712593687465,0.36229596462892927,1.0881861983015833,1.8361800909042358,0.0
265,1,265,-1,-1,-0.9669426864295358,-1.6864101442406625,1.1644712593687465,0.3588782141257112,1.0881861983015833,1.941178798675537,0.0
266,1,266,-1,1,0.6056571740510951,-0.35318023913592533,1.1644712593687465,0.3520815594225885,1.0881861983015833,4.550117492675781,0.0
267,1,267,1,1,1.6876298875860478,0.24003441584794172,1.1644712593687465,0.34740535721953714,1.0881861983015833,3.485194683074951,1.0
268,1,268,-1,1,1.258816655685854,-0.35318023913592533,1.1644712593687465,0.3492586547700437,1.0881861983015833,1.2661863565444946,0.0
269,1,269,1,-1,-0.9637047447169033,-1.0931954892567954,1.1644712593687465,0.3588642199926055,1.0881861983015833,1.5621836185455322,0.0
270,1,270,1,-1,-3.2152524306823365,-1.0931954892567954,1.1644712593687465,0.3685952345715111,1.0881861983015833,1.6341826915740967,0.0
271,1,271,1,1,1.0934499539645746,0.24003441584794172,1.1644712593687465,0.3499733568371355,1.0881861983015833,1.9921780824661255,1.0
272,1,272,1,1,2.219689449247439,0.24003441584794172,1.1644712593687465,0.3451058370345347,1.0881861983015833,1.3691860437393188,0.0
273,1,273,-1,-1,-1.2945511241779897,-1.6864101442406625,1.1644712593687465,0.3602941124003843,1.0881861983015833,1.4611848592758179,0.0
274,1,274,1,-1,-1.0510263914460192,-1.0931954892567954,1.1644712593687465,0.3592416173813757,1.0881861983015833,2.8032102584838867,0.0
275,1,275,1,-1,-1.112461629564618,-1.0931954892567954,1.1644712593687465,0.35950713571861415,1.0881861983015833,1.987178087234497,0.0
276,1,276,-1,-1,-1.4558274148511312,-1.6864101442406625,1.1644712593687465,0.36099113602797817,1.0881861983015833,1.1641861200332642,0.0
277,1,277,-1,-1,0.13687071131644002,-1.6864101442406625,1.1644712593687465,0.35410761817839426,1.0881861983015833,1.5171841382980347,0.0
278,1,278,1,1,1.7771092551512055,0.24003441584794172,1.1644712593687465,0.3470186343285607,1.0881861983015833,2.2991867065429688,0.0
279,1,279,1,1,1.6069384700128655,0.24003441584794172,1.1644712593687465,0.3477540992718115,1.0881861983015833,2.7382073402404785,1.0
280,1,280,1,1,0.796353046225903,0.24003441584794172,1.1644712593687465,0.35125738664408723,1.0881861983015833,4.026155471801758,1.0
281,1,281,1,1,1.1764885605144524,0.24003441584794172,1.1644712593687465,0.34961447041603694,1.0881861983015833,1.7461812496185303,0.0
282,1,282,1,-1,0.09601250197196376,-1.0931954892567954,1.1644712593687465,0.3542842041922182,1.0881861983015833,3.125220775604248,0.0
283,1,283,1,1,0.8013217287113421,0.24003441584794172,1.1644712593687465,0.351235912383513,1.0881861983015833,1.504184365272522,1.0
284,1,284,1,-1,0.0529963974004406,-1.0931954892567954,1.1644712593687465,0.35447011646195264,1.0881861983015833,1.7181816101074219,0.0
285,1,285,-1,1,0.9522699832612238,-0.35318023913592533,1.1644712593687465,0.3505835257275069,1.0881861983015833,1.6781821250915527,0.0
286,1,286,-1,1,2.167132960226992,-0.35318023913592533,1.1644712593687465,0.3453329821063721,1.0881861983015833,2.0181777477264404,0.0
287,1,287,-1,1,2.524599048675194,-0.35318023913592533,1.1644712593687465,0.34378804137967267,1.0881861983015833,1.6121829748153687,0.0
288,1,288,-1,-1,-1.6188183964473124,-1.6864101442406625,1.1644712593687465,0.36169557041683387,1.0881861983015833,1.5901832580566406,0.0
289,1,289,1,-1,-0.16946073802940587,-1.0931954892567954,1.1644712593687465,0.3554315589583931,1.0881861983015833,1.692181944847107,0.0
290,1,290,1,1,1.1572998959924128,0.24003441584794172,1.1644712593687465,0.3496974023367676,1.0881861983015833,1.268186330795288,0.0
291,1,291,1,1,1.4984439347203102,0.24003441584794172,1.1644712593687465,0.34822300424382,1.0881861983015833,1.8421800136566162,0.0
292,1,292,1,-1,-2.0467841274548357,-1.0931954892567954,1.1644712593687465,0.363545205134173,1.0881861983015833,1.7021818161010742,0.0
293,1,293,-1,1,1.1514814140979825,-0.35318023913592533,1.1644712593687465,0.34972254936451863,1.0881861983015833,2.7722086906433105,0.0
294,1,294,-1,1,0.24133865073650485,-0.35318023913592533,1.1644712593687465,0.353656115841641,1.0881861983015833,1.302186369895935,0.0
295,1,295,1,-1,-2.3335085515432965,-1.0931954892567954,1.1644712593687465,0.36478440587077066,1.0881861983015833,1.5021843910217285,0.0
296,1,296,1,1,0.42658408284343086,0.24003441584794172,1.1644712593687465,0.35285549944264377,1.0881861983015833,5.352059841156006,1.0
297,1,297,1,1,1.3498233453530242,0.24003441584794172,1.1644712593687465,0.3488653309113267,1.0881861983015833,2.030177593231201,1.0
298,1,298,-1,-1,-1.2451146466287921,-1.6864101442406625,1.1644712593687465,0.3600804517762902,1.0881861983015833,1.4211853742599487,0.0
299,1,299,-1,1,2.654795598571649,-0.35318023913592533,1.1644712593687465,0.34322534198269217,1.0881861983015833,1.4321852922439575,0.0
300,1,300,-1,1,3.0050445771946763,-0.35318023913592533,1.1644712593687465,0.3417115930452514,1.0881861983015833,1.692181944847107,0.0
301,1,301,-1,-1,-0.0813312804823294,-1.6864101442406625,1.1644712593687465,0.35505067027388193,1.0881861983015833,1.7301814556121826,0.0
302,1,302,-1,-1,-1.8327590271953724,-1.6864101442406625,1.1644712593687465,0.3626202052401629,1.0881861983015833,1.3721860647201538,0.0
303,1,303,-1,1,0.5739185306758133,-0.35318023913592533,1.1644712593687465,0.3522187313791607,1.0881861983015833,2.5571987628936768,1.0
304,1,304,1,-1,-0.5273881409190109,-1.0931954892567954,1.1644712593687465,0.3569784934503513,1.0881861983015833,1.360186219215393,0.0
305,1,305,-1,1,-0.5118940945416832,-0.35318023913592533,1.1644712593687465,0.3569115293828684,1.0881861983015833,2.806210517883301,0.0
306,1,306,1,1,1.8902783546769553,0.24003441584794172,1.1644712593687465,0.34652952625226674,1.0881861983015833,1.972178339958191,0.0
307,1,307,1,1,1.1945218528082249,0.24003441584794172,1.1644712593687465,0.3495365319245228,1.0881861983015833,1.939178705215454,1.0
308,1,308,1,1,-0.6226696162939664,0.24003441584794172,1.1644712593687465,0.3573902926015542,1.0881861983015833,2.110177993774414,1.0
309,1,309,1,1,3.0937270525523437,0.24003441584794172,1.1644712593687465,0.34132831426062776,1.0881861983015833,2.3051869869232178,1.0
310,1,310,1,1,0.5983081097732523,0.24003441584794172,1.1644712593687465,0.35211332150876357,1.0881861983015833,2.040177345275879,1.0
311,1,311,1,-1,-0.6298992033683312,-1.0931954892567954,1.1644712593687465,0.3574215383165167,1.0881861983015833,2.1961817741394043,0.0
312,1,312,-1,-1,-3.213228711145731,-1.6864101442406625,1.1644712593687465,0.36858648821253454,1.0881861983015833,1.6121829748153687,0.0
313,1,313,-1,-1,-1.048483618065035,-1.6864101442406625,1.1644712593687465,0.35923062771191616,1.0881861983015833,1.478184700012207,0.0
314,1,314,1,-1,-3.0385860127193927,-1.0931954892567954,1.1644712593687465,0.3678316960066757,1.0881861983015833,1.1871861219406128,0.0
315,1,315,1,-1,-1.5563276141319893,-1.0931954892567954,1.1644712593687465,0.3614254900993935,1.0881861983015833,1.9541785717010498,1.0
316,1,316,-1,1,1.633693055541659,-0.35318023913592533,1.1644712593687465,0.3476384680269322,1.0881861983015833,1.2611863613128662,0.0
317,1,317,-1,-1,-1.2587613526800907,-1.6864101442406625,1.1644712593687465,0.3601394317820733,1.0881861983015833,1.4921845197677612,0.0
318,1,318,1,-1,-1.216389119608581,-1.0931954892567954,1.1644712593687465,0.35995630227505476,1.0881861983015833,3.4151997566223145,0.0
319,1,319,-1,1,-0.12127376441594873,-0.35318023913592533,1.1644712593687465,0.35522329859345897,1.0881861983015833,4.783100605010986,0.0
320,1,320,1,1,0.5320152730228138,0.24003441584794172,1.1644712593687465,0.35239983401077124,1.0881861983015833,2.665203809738159,1.0
321,1,321,1,1,0.4529526534296251,0.24003441584794172,1.1644712593687465,0.35274153652442597,1.0881861983015833,3.276209831237793,1.0
322,1,322,1,-1,-1.5463487470454116,-1.0931954892567954,1.1644712593687465,0.36138236220931785,1.0881861983015833,1.2931864261627197,0.0
323,1,323,1,1,1.6619113977158106,0.24003441584794172,1.1644712593687465,0.347516510539289,1.0881861983015833,1.8671796321868896,0.0
324,1,324,1,1,0.7600036850897505,0.24003441584794172,1.1644712593687465,0.3514144857654404,1.0881861983015833,2.318187713623047,1.0
325,1,325,1,-1,-1.448387260785549,-1.0931954892567954,1.1644712593687465,0.3609589802588009,1.0881861983015833,2.324187755584717,0.0
326,1,326,-1,-1,-1.8370159925424714,-1.6864101442406625,1.1644712593687465,0.3626386035144312,1.0881861983015833,1.3091864585876465,0.0
327,1,327,1,-1,-1.5880852159819323,-1.0931954892567954,1.1644712593687465,0.36156274399302374,1.0881861983015833,1.2001862525939941,0.0
328,1,328,-1,-1,-0.5229871478492721,-1.6864101442406625,1.1644712593687465,0.3569594726994295,1.0881861983015833,1.2981864213943481,0.0
329,1,329,1,-1,-1.6827027425494898,-1.0931954892567954,1.1644712593687465,0.3619716736089444,1.0881861983015833,2.5001959800720215,0.0
330,1,330,1,-1,-0.49149422609733207,-1.0931954892567954,1.1644712593687465,0.35682336273266724,1.0881861983015833,3.3742027282714844,0.0
331,1,331,-1,-1,-1.9772906124666372,-1.6864101442406625,1.1644712593687465,0.36324485954890967,1.0881861983015833,1.4021856784820557,0.0
332,1,332,1,-1,-1.0432765805818789,-1.0931954892567954,1.1644712593687465,0.3592081232995169,1.0881861983015833,1.6761821508407593,0.0
333,1,333,1,1,2.470630179476879,0.24003441584794172,1.1644712593687465,0.3440212906491638,1.0881861983015833,3.6941795349121094,1.0
334,1,334,-1,1,0.6235250669369811,-0.35318023913592533,1.1644712593687465,0.3520043357744949,1.0881861983015833,1.6951818466186523,0.0
335,1,335,-1,-1,-1.9790700528192806,-1.6864101442406625,1.1644712593687465,0.3632525501521875,1.0881861983015833,2.2291834354400635,0.0
336,1,336,1,-1,-0.7819353632736634,-1.0931954892567954,1.1644712593687465,0.35807862681514435,1.0881861983015833,3.870166778564453,0.0
337,1,337,1,-1,-0.14166943717854574,-1.0931954892567954,1.1644712593687465,0.35531144711024876,1.0881861983015833,2.168180465698242,0.0
338,1,338,1,1,1.1471603807332382,0.24003441584794172,1.1644712593687465,0.3497412245357932,1.0881861983015833,5.319062232971191,1.0
339,1,339,1,-1,-2.1320786103719938,-1.0931954892567954,1.1644712593687465,0.3639138412780756,1.0881861983015833,1.3401864767074585,0.0
340,1,340,1,1,3.5065716961477396,0.24003441584794172,1.1644712593687465,0.3395440317110324,1.0881861983015833,1.7351813316345215,0.0
341,1,341,1,1,-0.903842074288236,0.24003441584794172,1.1644712593687465,0.3586054981710315,1.0881861983015833,3.0592222213745117,1.0
342,1,342,-1,1,-0.979533682547264,-0.35318023913592533,1.1644712593687465,0.3589326314349906,1.0881861983015833,1.799180507659912,0.0
343,1,343,-1,-1,-1.6130007782846314,-1.6864101442406625,1.1644712593687465,0.3616704271220645,1.0881861983015833,2.5531985759735107,0.0
344,1,344,1,-1,-0.5410582899649061,-1.0931954892567954,1.1644712593687465,0.35703757477494,1.0881861983015833,1.2701863050460815,0.0
345,1,345,-1,-1,-1.1030024901056272,-1.6864101442406625,1.1644712593687465,0.3594662540510603,1.0881861983015833,1.5761834383010864,1.0
346,1,346,-1,-1,0.08561504365784378,-1.6864101442406625,1.1644712593687465,0.35432914120113385,1.0881861983015833,1.3781859874725342,0.0
347,1,347,1,-1,0.6757429525168828,-1.0931954892567954,1.1644712593687465,0.351778654120482,1.0881861983015833,1.553183674812317,0.0
348,1,348,-1,-1,0.6692150337628546,-1.6864101442406625,1.1644712593687465,0.351806867279351,1.0881861983015833,1.208186149597168,0.0
349,1,349,1,1,-0.27541289472290553,0.24003441584794172,1.1644712593687465,0.355889475967159,1.0881861983015833,2.145179510116577,0.0
350,1,350,-1,-1,-1.8573447987025902,-1.6864101442406625,1.1644712593687465,0.36272646303894807,1.0881861983015833,2.103177547454834,0.0
351,1,351,1,-1,0.12457828139090799,-1.0931954892567954,1.1644712593687465,0.3541607451077332,1.0881861983015833,1.1601860523223877,0.0
352,1,352,-1,1,0.2006137551282008,-0.35318023913592533,1.1644712593687465,0.35383212568383043,1.0881861983015833,2.1771810054779053,0.0
353,1,353,-1,-1,-1.0190537470490282,-1.6864101442406625,1.1644712593687465,0.3591034340905253,1.0881861983015833,1.4331852197647095,0.0
354,1,354,1,1,0.8787486395397996,0.24003441584794172,1.1644712593687465,0.35090127927635395,1.0881861983015833,3.5591893196105957,0.0
355,1,355,-1,1,0.8884957277834609,-0.35318023913592533,1.1644712593687465,0.3508591531164719,1.0881861983015833,4.734104156494141,1.0
356,1,356,-1,1,-0.2181746098409627,-0.35318023913592533,1.1644712593687465,0.3556420965364991,1.0881861983015833,2.101177453994751,1.0
357,1,357,1,-1,-2.168714128500711,-1.0931954892567954,1.1644712593687465,0.3640721771477702,1.0881861983015833,1.614182949066162,0.0
358,1,358,-1,-1,-0.6986797814511005,-1.6864101442406625,1.1644712593687465,0.35771880264373523,1.0881861983015833,1.8151803016662598,0.0
359,1,359,1,1,1.6531684257371264,0.24003441584794172,1.1644712593687465,0.3475542969865039,1.0881861983015833,2.4661946296691895,1.0
360,1,360,1,1,0.31375232205580383,0.24003441584794172,1.1644712593687465,0.35334314956705903,1.0881861983015833,1.941178798675537,0.0
361,1,361,-1,1,1.0243038283624322,-0.35318023913592533,1.1644712593687465,0.3502722010323988,1.0881861983015833,2.128178596496582,1.0
362,1,362,-1,-1,-0.6785256464922164,-1.6864101442406625,1.1644712593687465,0.3576316980346112,1.0881861983015833,1.3151863813400269,0.0
363,1,363,1,1,-0.16606227281126973,0.24003441584794172,1.1644712593687465,0.35541687105513897,1.0881861983015833,2.152179718017578,1.0
364,1,364,1,-1,-0.8421743394132645,-1.0931954892567954,1.1644712593687465,0.35833897500083306,1.0881861983015833,1.2091861963272095,0.0
365,1,365,-1,1,0.01958980927355536,-0.35318023913592533,1.1644712593687465,0.35461449714645715,1.0881861983015833,2.2281832695007324,1.0
366,1,366,-1,-1,-2.538449144041561,-1.6864101442406625,1.1644712593687465,0.3656701432263866,1.0881861983015833,1.2601863145828247,0.0
367,1,367,1,-1,-2.343190962168892,-1.0931954892567954,1.1644712593687465,0.3648262524990006,1.0881861983015833,1.3741860389709473,0.0
368,1,368,1,-1,-1.7554206048989072,-1.0931954892567954,1.1644712593687465,0.3622859545735803,1.0881861983015833,5.4880499839782715,0.0
369,1,369,-1,-1,-1.3537950941724275,-1.6864101442406625,1.1644712593687465,0.3605501602466376,1.0881861983015833,1.4761847257614136,0.0
370,1,370,1,1,0.2418141478717657,0.24003441584794172,1.1644712593687465,0.35365406077987865,1.0881861983015833,2.4951958656311035,1.0
371,1,371,-1,-1,0.4729084490352087,-1.6864101442406625,1.1644712593687465,0.3526552891226134,1.0881861983015833,1.1851861476898193,0.0
372,1,372,-1,-1,-1.305166374954064,-1.6864101442406625,1.1644712593687465,0.3603399906914392,1.0881861983015833,1.5131841897964478,0.0
373,1,373,1,1,1.8289669772588129,0.24003441584794172,1.1644712593687465,0.3467945092731584,1.0881861983015833,2.0211777687072754,0.0
374,1,374,-1,-1,-0.8711961922123793,-1.6864101442406625,1.1644712593687465,0.35846440519911643,1.0881861983015833,2.033177614212036,0.0
375,1,375,1,-1,-1.5461038779323018,-1.0931954892567954,1.1644712593687465,0.36138130390399104,1.0881861983015833,1.5801833868026733,0.0
376,1,376,1,1,1.0743775107063902,0.24003441584794172,1.1644712593687465,0.35005578645857216,1.0881861983015833,1.8221802711486816,0.0
377,1,377,1,-1,-1.1254752040546094,-1.0931954892567954,1.1644712593687465,0.359563379378864,1.0881861983015833,2.5531985759735107,0.0
378,1,378,-1,1,2.0808048280606175,-0.35318023913592533,1.1644712593687465,0.34570608560221056,1.0881861983015833,2.355189323425293,0.0
379,1,379,1,-1,-0.10695837527762986,-1.0931954892567954,1.1644712593687465,0.35516142859120403,1.0881861983015833,1.2641863822937012,0.0
380,1,380,-1,1,2.3222182225918533,-0.35318023913592533,1.1644712593687465,0.3446627156232535,1.0881861983015833,3.4351983070373535,0.0
381,1,381,-1,1,2.4765916028275314,-0.35318023913592533,1.1644712593687465,0.34399552583951853,1.0881861983015833,2.4611942768096924,0.0
382,1,382,1,1,0.24477028485151875,0.24003441584794172,1.1644712593687465,0.35364128458498545,1.0881861983015833,1.405185580253601,0.0
383,1,383,-1,-1,-0.7997434281326207,-1.6864101442406625,1.1644712593687465,0.3581555918911428,1.0881861983015833,1.4261853694915771,0.0
384,1,384,1,-1,-0.18074177147135673,-1.0931954892567954,1.1644712593687465,0.35548031471052444,1.0881861983015833,1.5201841592788696,0.0
385,1,385,-1,1,-0.1546019248425332,-0.35318023913592533,1.1644712593687465,0.3553673403195218,1.0881861983015833,1.3491863012313843,0.0
386,1,386,-1,-1,-2.300638842840999,-1.6864101442406625,1.1644712593687465,0.3646423455375251,1.0881861983015833,1.3561862707138062,0.0
387,1,387,1,1,1.6138152288193321,0.24003441584794172,1.1644712593687465,0.3477243784532748,1.0881861983015833,1.339186429977417,0.0
388,1,388,-1,1,0.7280581687913439,-0.35318023913592533,1.1644712593687465,0.3515525518107514,1.0881861983015833,1.2301862239837646,0.0
389,1,389,-1,-1,-2.129716988297295,-1.6864101442406625,1.1644712593687465,0.36390363453052055,1.0881861983015833,1.5321840047836304,0.0
390,1,390,-1,-1,-1.6978897574020595,-1.6864101442406625,1.1644712593687465,0.36203731070997563,1.0881861983015833,1.2531863451004028,0.0
391,1,391,1,1,1.6113166910256216,0.24003441584794172,1.1644712593687465,0.3477351769399549,1.0881861983015833,1.6271827220916748,0.0
392,1,392,1,1,2.86731609799892,0.24003441584794172,1.1644712593687465,0.3423068448568557,1.0881861983015833,2.1711807250976562,0.0
393,1,393,-1,-1,-0.21205600818277415,-1.6864101442406625,1.1644712593687465,0.35561565241439164,1.0881861983015833,1.3001863956451416,0.0
394,1,394,1,1,0.8097022318560246,0.24003441584794172,1.1644712593687465,0.3511996924985033,1.0881861983015833,3.9451613426208496,0.0
395,1,395,1,-1,-1.5734284705278576,-1.0931954892567954,1.1644712593687465,0.361499398675231,1.0881861983015833,1.5901832580566406,0.0
396,1,396,-1,-1,-0.9983823263027753,-1.6864101442406625,1.1644712593687465,0.35901409381232363,1.0881861983015833,2.135179042816162,0.0
397,1,397,1,1,0.09496573018148713,0.24003441584794172,1.1644712593687465,0.35428872825876023,1.0881861983015833,2.2241830825805664,1.0
398,1,398,-1,1,1.5016902008971074,-0.35318023913592533,1.1644712593687465,0.34820897413302543,1.0881861983015833,2.5101966857910156,1.0
399,1,399,1,-1,-0.5579294281360634,-1.0931954892567954,1.1644712593687465,0.357110490526416,1.0881861983015833,3.1412196159362793,0.0
400,1,400,1,-1,-0.2982652268831646,-1.0931954892567954,1.1644712593687465,0.35598824197544726,1.0881861983015833,1.4971843957901,0.0
401,1,401,-1,1,1.08537015715793,-0.35318023913592533,1.1644712593687465,0.35000827709266025,1.0881861983015833,1.991178035736084,0.0
402,1,402,-1,1,-0.6710424994763047,-0.35318023913592533,1.1644712593687465,0.35759935645323504,1.0881861983015833,1.7811808586120605,0.0
403,1,403,1,1,-1.1318046403328363,0.24003441584794172,1.1644712593687465,0.3595907347118572,1.0881861983015833,2.2911863327026367,1.0
404,1,404,1,1,0.7992636779452893,0.24003441584794172,1.1644712593687465,0.3512448071194022,1.0881861983015833,2.101177453994751,0.0
405,1,405,1,-1,-1.1333991190660797,-1.0931954892567954,1.1644712593687465,0.3595976259253526,1.0881861983015833,1.854179859161377,0.0
406,1,406,1,1,1.465146813045614,0.24003441584794172,1.1644712593687465,0.34836691182280305,1.0881861983015833,2.4661946296691895,1.0
407,1,407,-1,1,2.427166196938132,-0.35318023913592533,1.1644712593687465,0.34420913861275715,1.0881861983015833,2.2881860733032227,0.0
408,1,408,-1,-1,-1.4581828846180263,-1.6864101442406625,1.1644712593687465,0.3610013161857357,1.0881861983015833,1.2251862287521362,0.0
409,1,409,1,1,2.153079348757216,0.24003441584794172,1.1644712593687465,0.34539372072583424,1.0881861983015833,1.3411864042282104,0.0
410,1,410,-1,1,-0.23378704979807607,-0.35318023913592533,1.1644712593687465,0.355709572291857,1.0881861983015833,4.723104953765869,0.0
411,1,411,-1,-1,-1.2319318421945649,-1.6864101442406625,1.1644712593687465,0.36002347671733853,1.0881861983015833,1.2901864051818848,0.0
412,1,412,-1,-1,-0.9470594181345205,-1.6864101442406625,1.1644712593687465,0.3587922801813132,1.0881861983015833,1.9271788597106934,0.0
413,1,413,-1,-1,-0.6586286852214088,-1.6864101442406625,1.1644712593687465,0.35754570491023324,1.0881861983015833,1.8081804513931274,0.0
414,1,414,1,1,1.4867089721098385,0.24003441584794172,1.1644712593687465,0.34827372184263317,1.0881861983015833,3.359203815460205,1.0
415,1,415,1,-1,-1.224333778412312,-1.0931954892567954,1.1644712593687465,0.3599906384746056,1.0881861983015833,2.2041821479797363,0.0
416,1,416,1,1,-0.9086544477053302,0.24003441584794172,1.1644712593687465,0.35862629687592806,1.0881861983015833,2.8252112865448,0.0
417,1,417,-1,-1,-1.3527082932073993,-1.6864101442406625,1.1644712593687465,0.36054546317710584,1.0881861983015833,1.3331865072250366,0.0
418,1,418,-1,-1,-0.5802491331949293,-1.6864101442406625,1.1644712593687465,0.3572069545616566,1.0881861983015833,1.8181803226470947,0.0
419,1,419,1,-1,-1.9729089144858878,-1.0931954892567954,1.1644712593687465,0.3632259221898669,1.0881861983015833,1.4611848592758179,0.0
420,1,420,1,1,0.6888443572470994,0.24003441584794172,1.1644712593687465,0.3517220308647417,1.0881861983015833,2.321187734603882,1.0
421,1,421,1,1,2.27794488255166,0.24003441584794172,1.1644712593687465,0.3448540615672339,1.0881861983015833,4.3741302490234375,1.0
422,1,422,1,1,2.137777549533106,0.24003441584794172,1.1644712593687465,0.34545985391602224,1.0881861983015833,2.345188856124878,1.0
423,1,423,1,1,3.155138502810719,0.24003441584794172,1.1644712593687465,0.34106289873267737,1.0881861983015833,1.9541785717010498,1.0
424,1,424,-1,-1,0.028213115208635564,-1.6864101442406625,1.1644712593687465,0.3545772278866073,1.0881861983015833,1.2821863889694214,0.0
425,1,425,-1,-1,-0.5224530693652285,-1.6864101442406625,1.1644712593687465,0.35695716445361847,1.0881861983015833,1.4221854209899902,0.0
426,1,426,1,1,-0.09824326004025541,0.24003441584794172,1.1644712593687465,0.3551237625386659,1.0881861983015833,2.7452075481414795,1.0
427,1,427,1,-1,0.6868524803724116,-1.0931954892567954,1.1644712593687465,0.35173063960220163,1.0881861983015833,1.2171862125396729,0.0
428,1,428,-1,1,2.875723327055228,-0.35318023913592533,1.1644712593687465,0.34227050946452753,1.0881861983015833,2.4951958656311035,0.0
429,1,429,1,1,1.641851678233122,0.24003441584794172,1.1644712593687465,0.3476032070920432,1.0881861983015833,5.138075351715088,0.0
430,1,430,1,-1,-0.44034473065184176,-1.0931954892567954,1.1644712593687465,0.3566022985780032,1.0881861983015833,1.3031864166259766,0.0
431,1,431,-1,-1,-1.782213242667233,-1.6864101442406625,1.1644712593687465,0.36240175027728944,1.0881861983015833,1.3591861724853516,0.0
432,1,432,-1,1,0.6334092322717246,-0.35318023913592533,1.1644712593687465,0.35196161717805025,1.0881861983015833,1.9611785411834717,1.0
433,1,433,1,-1,-1.3132145899253818,-1.0931954892567954,1.1644712593687465,0.3603747744527196,1.0881861983015833,1.2941863536834717,0.0
434,1,434,1,1,3.398915096445013,0.24003441584794172,1.1644712593687465,0.340009315190371,1.0881861983015833,1.504184365272522,0.0
435,1,435,1,1,1.2180969883079327,0.24003441584794172,1.1644712593687465,0.3494346420162267,1.0881861983015833,1.2941863536834717,0.0
436,1,436,1,1,0.7239538662599474,0.24003441584794172,1.1644712593687465,0.3515702902881633,1.0881861983015833,2.616201400756836,0.0
437,1,437,1,-1,0.1743036034601575,-1.0931954892567954,1.1644712593687465,0.35394583612001207,1.0881861983015833,1.6811821460723877,0.0
438,1,438,-1,-1,-1.6623096648552753,-1.6864101442406625,1.1644712593687465,0.361883536307839,1.0881861983015833,1.4331852197647095,0.0
439,1,439,1,-1,0.34476606341642824,-1.0931954892567954,1.1644712593687465,0.35320911058080623,1.0881861983015833,2.0701770782470703,0.0
440,1,440,-1,-1,-2.054505490659615,-1.6864101442406625,1.1644712593687465,0.36357857626745305,1.0881861983015833,1.2671862840652466,0.0
441,1,441,1,-1,-1.272524859443578,-1.0931954892567954,1.1644712593687465,0.3601989165914812,1.0881861983015833,2.0251777172088623,0.0
442,1,442,-1,1,1.7915830763152418,-0.35318023913592533,1.1644712593687465,0.3469560795953709,1.0881861983015833,2.9432168006896973,0.0
443,1,443,1,-1,-1.9418084765295303,-1.0931954892567954,1.1644712593687465,0.36309150850764726,1.0881861983015833,1.4711847305297852,0.0
444,1,444,-1,1,1.6093717868181447,-0.35318023913592533,1.1644712593687465,0.34774358266518807,1.0881861983015833,1.3061864376068115,0.0
445,1,445,1,-1,-0.44140395219743467,-1.0931954892567954,1.1644712593687465,0.35660687645142186,1.0881861983015833,1.3061864376068115,0.0
446,1,446,1,1,2.295201721691801,0.24003441584794172,1.1644712593687465,0.344779478846066,1.0881861983015833,1.2301862239837646,0.0
447,1,447,-1,1,0.8622749993820022,-0.35318023913592533,1.1644712593687465,0.35097247707222673,1.0881861983015833,1.732181429862976,0.0
448,1,448,1,1,-0.2302267128205706,0.24003441584794172,1.1644712593687465,0.35569418479140574,1.0881861983015833,1.6771821975708008,0.0
449,1,449,-1,-1,-3.174791137335352,-1.6864101442406625,1.1644712593687465,0.368420363997863,1.0881861983015833,1.171186089515686,0.0
450,1,450,1,-1,-0.7753349238913173,-1.0931954892567954,1.1644712593687465,0.35805010022774086,1.0881861983015833,2.664203643798828,0.0
451,1,451,1,1,1.8599950847946172,0.24003441584794172,1.1644712593687465,0.34666040819741,1.0881861983015833,3.933162212371826,1.0
452,1,452,-1,-1,-1.008919189570991,-1.6864101442406625,1.1644712593687465,0.3590596333186455,1.0881861983015833,1.3621861934661865,0.0
453,1,453,1,-1,-1.8299226514546967,-1.0931954892567954,1.1644712593687465,0.3626079466440622,1.0881861983015833,1.4981844425201416,0.0
454,1,454,-1,-1,-0.07135620403261633,-1.6864101442406625,1.1644712593687465,0.35500755876664497,1.0881861983015833,1.7741808891296387,0.0
455,1,455,-1,-1,1.662376885413961,-1.6864101442406625,1.1644712593687465,0.34751449873753804,1.0881861983015833,1.2601863145828247,0.0
456,1,456,1,-1,-1.246149479640511,-1.0931954892567954,1.1644712593687465,0.36008492424435584,1.0881861983015833,2.0151777267456055,0.0
457,1,457,1,-1,-1.6934207337348481,-1.0931954892567954,1.1644712593687465,0.3620179959360847,1.0881861983015833,2.7172062397003174,0.0
458,1,458,1,-1,-1.6220157557840191,-1.0931954892567954,1.1644712593687465,0.36170938915605644,1.0881861983015833,2.7422075271606445,0.0
459,1,459,1,1,1.2805910222790415,0.24003441584794172,1.1644712593687465,0.3491645476453821,1.0881861983015833,2.347188949584961,1.0
460,1,460,-1,1,1.5864038073481557,-0.35318023913592533,1.1644712593687465,0.347842848492185,1.0881861983015833,1.4171854257583618,0.0
461,1,461,1,1,2.575428370559314,0.24003441584794172,1.1644712593687465,0.3435683609903239,1.0881861983015833,2.129178762435913,0.0
462,1,462,-1,-1,-1.1562323189990813,-1.6864101442406625,1.1644712593687465,0.3596963092456376,1.0881861983015833,1.3511862754821777,0.0
463,1,463,1,-1,-0.8360821912260731,-1.0931954892567954,1.1644712593687465,0.35831264520857686,1.0881861983015833,1.2911863327026367,0.0
464,1,464,1,1,0.5756142155160959,0.24003441584794172,1.1644712593687465,0.35221140276071533,1.0881861983015833,3.9631600379943848,0.0
465,1,465,1,1,1.597489024146288,0.24003441584794172,1.1644712593687465,0.34779493904441033,1.0881861983015833,3.0372211933135986,1.0
466,1,466,-1,1,-0.20717663766948213,-0.35318023913592533,1.1644712593687465,0.35559456415323837,1.0881861983015833,2.049177408218384,0.0
467,1,467,1,1,1.8514922956095954,0.24003441584794172,1.1644712593687465,0.34669715659320754,1.0881861983015833,3.748175621032715,1.0
468,1,468,1,1,1.604871318296977,0.24003441584794172,1.1644712593687465,0.3477630333413005,1.0881861983015833,1.5931832790374756,0.0
469,1,469,-1,-1,-1.5611914183172595,-1.6864101442406625,1.1644712593687465,0.36144651108408365,1.0881861983015833,1.2691863775253296,0.0
470,1,470,1,1,0.7288520754704313,0.24003441584794172,1.1644712593687465,0.3515491206076209,1.0881861983015833,1.7341814041137695,1.0
471,1,471,-1,1,1.7787145896881693,-0.35318023913592533,1.1644712593687465,0.34701169619712313,1.0881861983015833,3.359203815460205,0.0
472,1,472,1,-1,-1.852528992675823,-1.0931954892567954,1.1644712593687465,0.3627056494985786,1.0881861983015833,1.3581862449645996,0.0
473,1,473,1,1,0.7325594909052386,0.24003441584794172,1.1644712593687465,0.35153309744547734,1.0881861983015833,2.2681851387023926,1.0
474,1,474,-1,1,-0.1736647550491892,-0.35318023913592533,1.1644712593687465,0.35544972839409483,1.0881861983015833,1.754181146621704,0.0
475,1,475,-1,-1,-2.86880294514875,-1.6864101442406625,1.1644712593687465,0.36709790674870013,1.0881861983015833,1.244186282157898,0.0
476,1,476,1,1,-0.18979466235624143,0.24003441584794172,1.1644712593687465,0.35551944060322976,1.0881861983015833,1.4731847047805786,0.0
477,1,477,-1,-1,0.016032091515189695,-1.6864101442406625,1.1644712593687465,0.35462987332684637,1.0881861983015833,2.101177453994751,0.0
478,1,478,1,-1,-0.7373118810566242,-1.0931954892567954,1.1644712593687465,0.35788576758381546,1.0881861983015833,1.6771821975708008,0.0
479,1,479,1,-1,-2.611439844884485,-1.0931954892567954,1.1644712593687465,0.3659856033778434,1.0881861983015833,2.432192802429199,0.0
480,1,480,-1,1,1.370705694892188,-0.35318023913592533,1.1644712593687465,0.3487750790152314,1.0881861983015833,2.62620210647583,0.0
481,1,481,-1,-1,0.12759960324829578,-1.6864101442406625,1.1644712593687465,0.3541476871888514,1.0881861983015833,1.7421813011169434,0.0
482,1,482,-1,-1,-1.4764954651269169,-1.6864101442406625,1.1644712593687465,0.3610804617392677,1.0881861983015833,1.3481863737106323,0.0
483,1,483,-1,1,2.5828847288004226,-0.35318023913592533,1.1644712593687465,0.343536135187956,1.0881861983015833,1.383185863494873,0.0
484,1,484,-1,-1,-1.0305502117571255,-1.6864101442406625,1.1644712593687465,0.3591531209198906,1.0881861983015833,1.4541850090026855,0.0
485,1,485,-1,-1,-0.09058845242957658,-1.6864101442406625,1.1644712593687465,0.3550906790535048,1.0881861983015833,1.2861863374710083,0.0
486,1,486,-1,-1,0.13074831717874824,-1.6864101442406625,1.1644712593687465,0.35413407869130414,1.0881861983015833,1.3201863765716553,0.0
487,1,487,1,-1,-1.349993918600112,-1.0931954892567954,1.1644712593687465,0.3605337318604472,1.0881861983015833,1.2851864099502563,0.0
488,1,488,-1,-1,-0.9819001475373337,-1.6864101442406625,1.1644712593687465,0.35894285911325047,1.0881861983015833,1.4441851377487183,0.0
489,1,489,1,1,1.7239597292362334,0.24003441584794172,1.1644712593687465,0.3472483424598894,1.0881861983015833,2.2331836223602295,0.0
490,1,490,-1,1,1.4182088496218916,-0.35318023913592533,1.1644712593687465,0.3485697740625093,1.0881861983015833,2.7352070808410645,1.0
491,1,491,-1,1,1.998057969104768,-0.35318023913592533,1.1644712593687465,0.3460637111128214,1.0881861983015833,1.2981864213943481,0.0
492,1,492,-1,1,0.724265831338032,-0.35318023913592533,1.1644712593687465,0.3515689419992765,1.0881861983015833,1.4501850605010986,0.0
493,1,493,1,-1,-1.1542898689848728,-1.0931954892567954,1.1644712593687465,0.35968791412723755,1.0881861983015833,1.6891820430755615,0.0
494,1,494,-1,-1,-0.595874005410842,-1.6864101442406625,1.1644712593687465,0.3572744840482734,1.0881861983015833,1.592183232307434,0.0
495,1,495,-1,-1,-1.4314971399214365,-1.6864101442406625,1.1644712593687465,0.3608859824655973,1.0881861983015833,1.2121862173080444,0.0
496,1,496,-1,1,0.9658506498579527,-0.35318023913592533,1.1644712593687465,0.35052483113912764,1.0881861983015833,2.2481842041015625,0.0
497,1,497,-1,-1,-2.643278479317227,-1.6864101442406625,1.1644712593687465,0.3661232074880156,1.0881861983015833,1.5321840047836304,0.0
498,1,498,1,1,0.4287571499634889,0.24003441584794172,1.1644712593687465,0.3528461076149876,1.0881861983015833,1.7181816101074219,0.0
499,1,499,-1,1,0.3048321843684987,-0.35318023913592533,1.1644712593687465,0.3533817017107343,1.0881861983015833,1.2931864261627197,0.0
500,2,0,-1,1,1.5944295665273962,2.8037711074331093,1.883039616220447,0.32940591503780436,1.4380989376004365,3.0441179275512695,1.0
501,2,1,-1,-1,-1.0352227282950772,0.6573249907367731,1.883039616220447,0.35086939699183795,1.4380989376004365,4.218079566955566,1.0
502,2,2,-1,1,1.007530569891185,2.8037711074331093,1.883039616220447,0.3341962426594233,1.4380989376004365,2.0600943565368652,1.0
503,2,3,-1,1,1.796181748093156,2.8037711074331093,1.883039616220447,0.3277591937899993,1.4380989376004365,2.3780903816223145,1.0
504,2,4,-1,-1,-2.042367945460059,0.6573249907367731,1.883039616220447,0.35908981580396504,1.4380989376004365,2.8001065254211426,0.0
505,2,5,-1,1,-0.5314213042630349,2.8037711074331093,1.883039616220447,0.3467573199714583,1.4380989376004365,1.8780968189239502,1.0
506,2,6,-1,1,2.257065239002057,2.8037711074331093,1.883039616220447,0.32399741718192376,1.4380989376004365,2.5600953102111816,1.0
507,2,7,1,-1,-0.4826894266573002,-2.1296961592260963,1.883039616220447,0.34635956556961733,1.4380989376004365,2.5380942821502686,0.0
508,2,8,-1,1,0.05692894669544735,2.8037711074331093,1.883039616220447,0.34195514706861413,1.4380989376004365,1.7700982093811035,1.0
509,2,9,1,-1,-0.1017779719747568,-2.1296961592260963,1.883039616220447,0.34325052862592687,1.4380989376004365,2.253092050552368,0.0
510,2,10,-1,1,2.3728758790033666,2.8037711074331093,1.883039616220447,0.32305215929111925,1.4380989376004365,2.162093162536621,1.0
511,2,11,1,-1,-0.3263460199710889,-2.1296961592260963,1.883039616220447,0.3450834752307354,1.4380989376004365,2.0440945625305176,0.0
512,2,12,-1,-1,-1.2843196836636717,0.6573249907367731,1.883039616220447,0.3529025509631388,1.4380989376004365,5.257004737854004,1.0
513,2,13,-1,-1,-0.6843673102724224,0.6573249907367731,1.883039616220447,0.34800568039020546,1.4380989376004365,2.5530948638916016,1.0
514,2,14,1,-1,-1.5263733183296149,-2.1296961592260963,1.883039616220447,0.35487821665467895,1.4380989376004365,1.9740955829620361,0.0
515,2,15,-1,-1,-1.5277091141256913,0.6573249907367731,1.883039616220447,0.3548891195520011,1.4380989376004365,10.364075660705566,1.0
516,2,16,1,-1,-0.19001958276792963,-2.1296961592260963,1.883039616220447,0.34397076537531884,1.4380989376004365,1.8050976991653442,0.0
517,2,17,1,1,-1.1267398477422468,0.016749957470239885,1.883039616220447,0.35161636876662616,1.4380989376004365,2.317091226577759,0.0
518,2,18,-1,-1,0.2683058991788796,0.6573249907367731,1.883039616220447,0.3402298674892342,1.4380989376004365,5.590980529785156,1.0
519,2,19,1,1,2.2830102332754048,0.016749957470239885,1.883039616220447,0.32378565157417405,1.4380989376004365,2.696101665496826,1.0
520,2,20,-1,-1,-1.6977320467617996,0.6573249907367731,1.883039616220447,0.3562768635338165,1.4380989376004365,2.2900915145874023,0.0
521,2,21,1,-1,-1.4498637964832295,-2.1296961592260963,1.883039616220447,0.35425373837490987,1.4380989376004365,2.4260897636413574,0.0
522,2,22,-1,1,0.6251008075488899,2.8037711074331093,1.883039616220447,0.3373176721803073,1.4380989376004365,1.9800955057144165,1.0
523,2,23,-1,-1,-1.7130725057457616,0.6573249907367731,1.883039616220447,0.35640207387634626,1.4380989376004365,2.297091484069824,1.0
524,2,24,-1,1,1.5205766887353716,2.8037711074331093,1.883039616220447,0.33000870952621014,1.4380989376004365,2.673100471496582,1.0
525,2,25,-1,-1,-1.8098511363285716,0.6573249907367731,1.883039616220447,0.35719199062508905,1.4380989376004365,3.764112710952759,1.0
526,2,26,1,1,0.2479798589508111,0.016749957470239885,1.883039616220447,0.34039577063867,1.4380989376004365,2.8041067123413086,0.0
527,2,27,-1,1,-0.35761141798609697,2.8037711074331093,1.883039616220447,0.3453386664997112,1.4380989376004365,2.0630943775177,1.0
528,2,28,1,1,1.9190794446072896,0.016749957470239885,1.883039616220447,0.32675609064342853,1.4380989376004365,2.206092596054077,0.0
529,2,29,-1,-1,-1.5254926917453426,0.6573249907367731,1.883039616220447,0.354871028893454,1.4380989376004365,4.175083160400391,1.0
530,2,30,-1,-1,-0.90459093855588,0.6573249907367731,1.883039616220447,0.34980316741190043,1.4380989376004365,1.9510958194732666,0.0
531,2,31,1,1,1.3453603360477424,0.016749957470239885,1.883039616220447,0.3314388427158212,1.4380989376004365,2.839108467102051,0.0
532,2,32,1,1,2.1787292738818245,0.016749957470239885,1.883039616220447,0.32463680307222587,1.4380989376004365,5.953954219818115,0.0
533,2,33,-1,-1,-2.696259733851204,0.6573249907367731,1.883039616220447,0.364426945213681,1.4380989376004365,2.8531088829040527,1.0
534,2,34,-1,1,1.769881765826646,2.8037711074331093,1.883039616220447,0.3279738568448374,1.4380989376004365,2.3790903091430664,1.0
535,2,35,-1,1,2.301125332740827,2.8037711074331093,1.883039616220447,0.3236377943417798,1.4380989376004365,2.126093626022339,1.0
536,2,36,1,1,2.689042894575829,0.016749957470239885,1.883039616220447,0.3204715728590038,1.4380989376004365,7.567837238311768,1.0
537,2,37,-1,-1,-1.282191824858129,0.6573249907367731,1.883039616220447,0.35288518316924317,1.4380989376004365,5.246005058288574,1.0
538,2,38,1,-1,-0.9077818289527423,-2.1296961592260963,1.883039616220447,0.349829211774718,1.4380989376004365,2.311091184616089,0.0
539,2,39,-1,-1,-1.1902077568377392,0.6573249907367731,1.883039616220447,0.35213440011404556,1.4380989376004365,3.3701331615448,0.0
540,2,40,1,1,1.937669846558752,0.016749957470239885,1.883039616220447,0.32660435394516274,1.4380989376004365,3.7091166973114014,1.0
541,2,41,1,-1,-1.2293381997074389,-2.1296961592260963,1.883039616220447,0.3524537866565329,1.4380989376004365,1.7530983686447144,0.0
542,2,42,-1,1,0.5230726183175842,2.8037711074331093,1.883039616220447,0.3381504363456232,1.4380989376004365,2.1380934715270996,1.0
543,2,43,1,1,0.6881600415560901,0.016749957470239885,1.883039616220447,0.33680297647935337,1.4380989376004365,3.820108652114868,1.0
544,2,44,-1,-1,-0.8722580494595914,0.6573249907367731,1.883039616220447,0.34953926317520484,1.4380989376004365,2.5930967330932617,1.0
545,2,45,-1,-1,-2.895282665364358,0.6573249907367731,1.883039616220447,0.3660513900527885,1.4380989376004365,3.7731120586395264,1.0
546,2,46,-1,1,1.2837474795661683,2.8037711074331093,1.883039616220447,0.3319417329404461,1.4380989376004365,2.630098581314087,1.0
547,2,47,-1,-1,-0.2357222322222422,0.6573249907367731,1.883039616220447,0.3443437949175688,1.4380989376004365,2.666100263595581,1.0
548,2,48,-1,-1,-2.6569358021554694,0.6573249907367731,1.883039616220447,0.36410597939627054,1.4380989376004365,5.054018974304199,1.0
549,2,49,-1,1,3.5487946131587225,2.8037711074331093,1.883039616220447,0.31345419435117367,1.4380989376004365,2.0520944595336914,1.0
550,2,50,-1,-1,-1.931810282549649,0.6573249907367731,1.883039616220447,0.3581874332313984,1.4380989376004365,1.9410960674285889,1.0
551,2,51,-1,1,-0.07046654276561637,2.8037711074331093,1.883039616220447,0.3429949616457947,1.4380989376004365,2.673100471496582,1.0
552,2,52,1,-1,0.3253992623007995,-2.1296961592260963,1.883039616220447,0.3397638658161327,1.4380989376004365,2.351090669631958,0.0
553,2,53,1,1,1.6297300266495816,0.016749957470239885,1.883039616220447,0.32911778919307066,1.4380989376004365,4.802037239074707,0.0
554,2,54,1,1,0.5538355853139524,0.016749957470239885,1.883039616220447,0.3378993459682835,1.4380989376004365,3.802109956741333,1.0
555,2,55,1,1,1.1023934557636246,0.016749957470239885,1.883039616220447,0.3334219624083652,1.4380989376004365,2.5270938873291016,0.0
556,2,56,-1,-1,-1.0352001284007175,0.6573249907367731,1.883039616220447,0.35086921252926634,1.4380989376004365,4.843034744262695,1.0
557,2,57,1,1,0.626143792126635,0.016749957470239885,1.883039616220447,0.33730915923709165,1.4380989376004365,4.2380781173706055,1.0
558,2,58,-1,-1,-2.1582701505268775,0.6573249907367731,1.883039616220447,0.3600358210578849,1.4380989376004365,3.2621281147003174,1.0
559,2,59,1,1,-0.8980083091564914,0.016749957470239885,1.883039616220447,0.34974943934009334,1.4380989376004365,10.586165428161621,1.0
560,2,60,-1,1,1.9336579597431753,2.8037711074331093,1.883039616220447,0.3266370993618999,1.4380989376004365,2.3230910301208496,1.0
561,2,61,1,1,-0.14725584571104378,0.016749957470239885,1.883039616220447,0.3436217235265487,1.4380989376004365,5.310000419616699,1.0
562,2,62,1,1,0.40084845489326604,0.016749957470239885,1.883039616220447,0.3391480420485406,1.4380989376004365,2.7881059646606445,0.0
563,2,63,-1,1,1.5400259477292524,2.8037711074331093,1.883039616220447,0.3298499627518718,1.4380989376004365,2.068094253540039,1.0
564,2,64,1,-1,0.7191793879833566,-2.1296961592260963,1.883039616220447,0.3365497935077573,1.4380989376004365,2.110093832015991,0.0
565,2,65,-1,-1,-2.0110309382184752,0.6573249907367731,1.883039616220447,0.35883404005340386,1.4380989376004365,2.1410934925079346,0.0
566,2,66,-1,-1,-0.3817183106237956,0.6573249907367731,1.883039616220447,0.3455354293402266,1.4380989376004365,6.850889205932617,1.0
567,2,67,-1,1,1.808563365471286,2.8037711074331093,1.883039616220447,0.3276581338051182,1.4380989376004365,2.693101406097412,1.0
568,2,68,1,1,2.648946460667809,0.016749957470239885,1.883039616220447,0.32079884391582764,1.4380989376004365,3.1001205444335938,0.0
569,2,69,-1,1,-0.27819980327002436,2.8037711074331093,1.883039616220447,0.34469050105108706,1.4380989376004365,2.8281078338623047,1.0
570,2,70,-1,-1,-1.6236845199483656,0.6573249907367731,1.883039616220447,0.35567248030085824,1.4380989376004365,2.5850963592529297,1.0
571,2,71,-1,1,1.7097325382166806,2.8037711074331093,1.883039616220447,0.32846480078594226,1.4380989376004365,2.2750916481018066,1.0
572,2,72,1,1,1.8053085549975414,0.016749957470239885,1.883039616220447,0.3276846998899213,1.4380989376004365,7.853816509246826,0.0
573,2,73,1,-1,-1.3314360176336646,-2.1296961592260963,1.883039616220447,0.35328711913813904,1.4380989376004365,2.077094316482544,0.0
574,2,74,1,-1,-1.8190187447381754,-2.1296961592260963,1.883039616220447,0.3572668175510855,1.4380989376004365,2.8051066398620605,0.0
575,2,75,-1,1,-0.13487325269262107,2.8037711074331093,1.883039616220447,0.3435206555783951,1.4380989376004365,2.910111665725708,1.0
576,2,76,1,1,-0.08155043308809562,0.016749957470239885,1.883039616220447,0.34308542945417586,1.4380989376004365,2.628098487854004,1.0
577,2,77,1,1,1.498515118877401,0.016749957470239885,1.883039616220447,0.3301887782400308,1.4380989376004365,2.1820929050445557,0.0
578,2,78,-1,1,0.985555677510335,2.8037711074331093,1.883039616220447,0.3343756039031082,1.4380989376004365,2.1910927295684814,1.0
579,2,79,-1,1,1.123295888704758,2.8037711074331093,1.883039616220447,0.3332513546846328,1.4380989376004365,2.600097179412842,1.0
580,2,80,-1,1,1.504382430933096,2.8037711074331093,1.883039616220447,0.3301408886590873,1.4380989376004365,2.977114677429199,1.0
581,2,81,-1,-1,-2.124879711451142,0.6573249907367731,1.883039616220447,0.35976328499372523,1.4380989376004365,3.742114305496216,1.0
582,2,82,-1,1,1.6724405638605453,2.8037711074331093,1.883039616220447,0.3287691815667014,1.4380989376004365,2.317091226577759,1.0
583,2,83,1,1,-0.19056619260856378,0.016749957470239885,1.883039616220447,0.3439752268588669,1.4380989376004365,9.178720474243164,1.0
584,2,84,-1,1,1.8546694123845586,2.8037711074331093,1.883039616220447,0.3272818116929351,1.4380989376004365,2.0010952949523926,1.0
585,2,85,-1,1,-1.3666790591726912,2.8037711074331093,1.883039616220447,0.3535747763267215,1.4380989376004365,2.7181026935577393,1.0
586,2,86,1,-1,-1.5173313411073015,-2.1296961592260963,1.883039616220447,0.35480441514285094,1.4380989376004365,2.4260897636413574,0.0
587,2,87,-1,-1,-2.2075663946914927,0.6573249907367731,1.883039616220447,0.3604381818753633,1.4380989376004365,2.261091947555542,1.0
588,2,88,1,1,-0.631024560789609,0.016749957470239885,1.883039616220447,0.34757029159634967,1.4380989376004365,4.121087074279785,0.0
589,2,89,1,-1,-0.9193396651979565,-2.1296961592260963,1.883039616220447,0.3499235479765669,1.4380989376004365,1.9980952739715576,0.0
590,2,90,-1,1,-0.9984092073672708,2.8037711074331093,1.883039616220447,0.35056892139525275,1.4380989376004365,2.587096691131592,1.0
591,2,91,1,1,-0.6770245816851759,0.016749957470239885,1.883039616220447,0.3479457483136963,1.4380989376004365,4.5190582275390625,1.0
592,2,92,1,-1,-2.4074184890487733,-2.1296961592260963,1.883039616220447,0.3620693944235618,1.4380989376004365,2.2860915660858154,0.0
593,2,93,-1,1,1.2962060236634314,2.8037711074331093,1.883039616220447,0.3318400450720798,1.4380989376004365,2.5760960578918457,1.0
594,2,94,1,-1,-2.8400805522327905,-2.1296961592260963,1.883039616220447,0.3656008249490458,1.4380989376004365,2.946113348007202,0.0
595,2,95,-1,1,1.0899519467126724,2.8037711074331093,1.883039616220447,0.33352351123499974,1.4380989376004365,2.664100170135498,1.0
596,2,96,-1,1,0.600137833080137,2.8037711074331093,1.883039616220447,0.3375214224453458,1.4380989376004365,2.7851057052612305,1.0
597,2,97,-1,1,-0.2887310252455271,2.8037711074331093,1.883039616220447,0.34477645792579253,1.4380989376004365,2.362090587615967,1.0
598,2,98,-1,1,0.3462804941286436,2.8037711074331093,1.883039616220447,0.3395934311379825,1.4380989376004365,2.215092420578003,1.0
599,2,99,-1,1,0.2984597277299551,2.8037711074331093,1.883039616220447,0.3399837489600943,1.4380989376004365,1.9580957889556885,1.0
600,2,100,1,-1,-1.0196492828975483,-2.1296961592260963,1.883039616220447,0.35074228499117155,1.4380989376004365,2.207092523574829,0.0
601,2,101,1,-1,0.11147295991783812,-2.1296961592260963,1.883039616220447,0.3415099534413789,1.4380989376004365,1.839097261428833,0.0
602,2,102,1,1,1.3743403109116963,0.016749957470239885,1.883039616220447,0.33120230529650324,1.4380989376004365,3.0651187896728516,1.0
603,2,103,1,1,-0.948897448166611,0.016749957470239885,1.883039616220447,0.35016480152274787,1.4380989376004365,1.9640957117080688,0.0
604,2,104,1,1,0.39847019553080876,0.016749957470239885,1.883039616220447,0.3391674536365321,1.4380989376004365,10.617177963256836,0.0
605,2,105,1,1,-0.29050415831576437,0.016749957470239885,1.883039616220447,0.34479093041317427,1.4380989376004365,2.2830915451049805,0.0
606,2,106,1,1,1.8405274839117614,0.016749957470239885,1.883039616220447,0.3273972395109659,1.4380989376004365,2.5480947494506836,0.0
607,2,107,1,-1,-2.01305336162321,-2.1296961592260963,1.883039616220447,0.3588505472731365,1.4380989376004365,2.653099536895752,0.0
608,2,108,-1,-1,-0.974400866822704,0.6573249907367731,1.883039616220447,0.35037296294666276,1.4380989376004365,3.523130178451538,0.0
609,2,109,-1,-1,-1.6485273642422467,0.6573249907367731,1.883039616220447,0.3558752500515353,1.4380989376004365,8.349781036376953,1.0
610,2,110,1,1,2.0861372841047388,0.016749957470239885,1.883039616220447,0.32539254804489065,1.4380989376004365,1.9140963554382324,0.0
611,2,111,1,-1,-1.274425378043734,-2.1296961592260963,1.883039616220447,0.3528217926626823,1.4380989376004365,1.9040964841842651,0.0
612,2,112,-1,-1,-2.4819271113838672,0.6573249907367731,1.883039616220447,0.36267754116374407,1.4380989376004365,2.4290897846221924,1.0
613,2,113,1,1,1.4172327691433957,0.016749957470239885,1.883039616220447,0.33085221281278104,1.4380989376004365,2.629098415374756,0.0
614,2,114,-1,-1,-0.9239954334203864,0.6573249907367731,1.883039616220447,0.34996154881699015,1.4380989376004365,8.071800231933594,1.0
615,2,115,-1,-1,0.9596248989383438,0.6573249907367731,1.883039616220447,0.33458725348089835,1.4380989376004365,2.704102039337158,1.0
616,2,116,1,-1,-0.16080654483385404,-2.1296961592260963,1.883039616220447,0.3437323256721858,1.4380989376004365,2.9871153831481934,0.0
617,2,117,-1,1,1.1280460311016038,2.8037711074331093,1.883039616220447,0.33321258355286965,1.4380989376004365,2.5150933265686035,1.0
618,2,118,1,-1,-2.0975147374443877,-2.1296961592260963,1.883039616220447,0.35953992937103585,1.4380989376004365,1.790097951889038,0.0
619,2,119,-1,-1,-1.6990583038299034,0.6573249907367731,1.883039616220447,0.35628768857509807,1.4380989376004365,3.2641282081604004,1.0
620,2,120,1,1,0.9915461043586302,0.016749957470239885,1.883039616220447,0.33432670944705845,1.4380989376004365,1.6230990886688232,0.0
621,2,121,-1,1,2.1408275006600492,2.8037711074331093,1.883039616220447,0.3249461610916009,1.4380989376004365,2.0400948524475098,1.0
622,2,122,-1,-1,-0.40389567006170646,0.6573249907367731,1.883039616220447,0.3457164431400437,1.4380989376004365,6.418920516967773,1.0
623,2,123,1,-1,-0.9433387298339391,-2.1296961592260963,1.883039616220447,0.3501194307142742,1.4380989376004365,2.30609130859375,0.0
624,2,124,1,1,1.3197758880296604,0.016749957470239885,1.883039616220447,0.33164766550939784,1.4380989376004365,2.317091226577759,1.0
625,2,125,1,-1,0.2769133972928437,-2.1296961592260963,1.883039616220447,0.3401596122388339,1.4380989376004365,2.444089889526367,0.0
626,2,126,-1,1,0.5001056928602337,2.8037711074331093,1.883039616220447,0.3383378946613344,1.4380989376004365,2.5250935554504395,1.0
627,2,127,-1,-1,-1.7141921005054823,0.6573249907367731,1.883039616220447,0.3564112121194396,1.4380989376004365,3.0821197032928467,1.0
628,2,128,1,-1,-1.2729450783980958,-2.1296961592260963,1.883039616220447,0.35280971031065683,1.4380989376004365,2.940113067626953,0.0
629,2,129,-1,-1,0.08418943473175045,0.6573249907367731,1.883039616220447,0.3417326442707433,1.4380989376004365,2.7261030673980713,1.0
630,2,130,-1,-1,-1.5045043487233292,0.6573249907367731,1.883039616220447,0.3546997199631498,1.4380989376004365,2.7191028594970703,1.0
631,2,131,-1,-1,-0.542391752444054,0.6573249907367731,1.883039616220447,0.3468468618538678,1.4380989376004365,2.9781148433685303,1.0
632,2,132,-1,-1,-2.6723837534277655,0.6573249907367731,1.883039616220447,0.3642320671014826,1.4380989376004365,2.209092617034912,1.0
633,2,133,-1,1,2.0793405715649316,2.8037711074331093,1.883039616220447,0.3254480234844505,1.4380989376004365,2.0620944499969482,1.0
634,2,134,1,-1,-0.24725365445197456,-2.1296961592260963,1.883039616220447,0.3444379155256125,1.4380989376004365,1.7100989818572998,0.0
635,2,135,-1,1,0.7533957736695809,2.8037711074331093,1.883039616220447,0.33627051598572355,1.4380989376004365,2.1990926265716553,1.0
636,2,136,1,-1,-0.4594150841811563,-2.1296961592260963,1.883039616220447,0.3461695980858126,1.4380989376004365,1.8180975914001465,0.0
637,2,137,-1,-1,-0.06837778633222213,0.6573249907367731,1.883039616220447,0.3429779130093256,1.4380989376004365,5.354997634887695,1.0
638,2,138,-1,1,0.5456326772757429,2.8037711074331093,1.883039616220447,0.3379662989144945,1.4380989376004365,2.2770917415618896,1.0
639,2,139,1,1,-0.35950423800029774,0.016749957470239885,1.883039616220447,0.3453541158837598,1.4380989376004365,4.991024017333984,1.0
640,2,140,1,1,1.8254670023487671,0.016749957470239885,1.883039616220447,0.3275201646501118,1.4380989376004365,1.6700992584228516,0.0
641,2,141,-1,-1,-2.0984717219943363,0.6573249907367731,1.883039616220447,0.3595477403735241,1.4380989376004365,5.257004737854004,1.0
642,2,142,1,1,1.6126836402927678,0.016749957470239885,1.883039616220447,0.32925692348343727,1.4380989376004365,4.304073333740234,1.0
643,2,143,-1,-1,0.23890070112889572,0.6573249907367731,1.883039616220447,0.34046987562222697,1.4380989376004365,4.652048110961914,1.0
644,2,144,1,1,2.769714239905512,0.016749957470239885,1.883039616220447,0.31981312536459533,1.4380989376004365,4.003095626831055,0.0
645,2,145,-1,1,1.8365603865198126,2.8037711074331093,1.883039616220447,0.3274296193520002,1.4380989376004365,2.065094470977783,1.0
646,2,146,-1,1,1.6534918478993785,2.8037711074331093,1.883039616220447,0.32892384285933135,1.4380989376004365,2.128093719482422,1.0
647,2,147,-1,-1,-0.5556509979022084,0.6573249907367731,1.883039616220447,0.3469550851258858,1.4380989376004365,7.842817306518555,1.0
648,2,148,-1,1,-0.1780461176626098,2.8037711074331093,1.883039616220447,0.3438730367696316,1.4380989376004365,2.4240899085998535,1.0
649,2,149,-1,1,0.9309409480515894,2.8037711074331093,1.883039616220447,0.33482137472325435,1.4380989376004365,2.8001065254211426,1.0
650,2,150,-1,1,1.6093896073472378,2.8037711074331093,1.883039616220447,0.32928380970593196,1.4380989376004365,3.0201168060302734,1.0
651,2,151,-1,1,2.2962289178513133,2.8037711074331093,1.883039616220447,0.32367775936408616,1.4380989376004365,2.4640908241271973,1.0
652,2,152,-1,-1,-1.7851814570142577,0.6573249907367731,1.883039616220447,0.3569906342640914,1.4380989376004365,5.2180070877075195,1.0
653,2,153,1,1,-0.029369251575656508,0.016749957470239885,1.883039616220447,0.3426595214929075,1.4380989376004365,8.860743522644043,0.0
654,2,154,-1,-1,-0.5578360773414655,0.6573249907367731,1.883039616220447,0.3469729199602496,1.4380989376004365,3.90810227394104,1.0
655,2,155,1,-1,-0.5762641654110543,-2.1296961592260963,1.883039616220447,0.3471233318365679,1.4380989376004365,2.1380934715270996,0.0
656,2,156,1,-1,1.2115456868032375,-2.1296961592260963,1.883039616220447,0.33253105110964565,1.4380989376004365,2.0540945529937744,0.0
657,2,157,-1,-1,-0.867320875596092,0.6573249907367731,1.883039616220447,0.349498965474124,1.4380989376004365,2.1010940074920654,1.0
658,2,158,1,1,2.6885228358023108,0.016749957470239885,1.883039616220447,0.32047581763011757,1.4380989376004365,3.0691189765930176,1.0
659,2,159,-1,-1,-3.1953073502466305,0.6573249907367731,1.883039616220447,0.36850022118624826,1.4380989376004365,5.179010391235352,1.0
660,2,160,-1,-1,-0.899976041609926,0.6573249907367731,1.883039616220447,0.3497655001668756,1.4380989376004365,4.956026077270508,1.0
661,2,161,1,1,0.22344113683405142,0.016749957470239885,1.883039616220447,0.34059605811407695,1.4380989376004365,6.646903991699219,1.0
662,2,162,-1,1,1.192963876546208,2.8037711074331093,1.883039616220447,0.33268271768165225,1.4380989376004365,2.0600943565368652,1.0
663,2,163,1,-1,-1.4889670546361544,-2.1296961592260963,1.883039616220447,0.3545729030330518,1.4380989376004365,2.0390946865081787,0.0
664,2,164,-1,1,1.1406702454528956,2.8037711074331093,1.883039616220447,0.33310954346751454,1.4380989376004365,2.204092502593994,1.0
665,2,165,-1,-1,-0.2906540179813534,0.6573249907367731,1.883039616220447,0.3447921535825774,1.4380989376004365,3.9161016941070557,1.0
666,2,166,1,1,0.2434692070037845,0.016749957470239885,1.883039616220447,0.34043258702570967,1.4380989376004365,8.709754943847656,0.0
667,2,167,-1,-1,-0.271268973676389,0.6573249907367731,1.883039616220447,0.34463393093487726,1.4380989376004365,2.437089681625366,0.0
668,2,168,-1,-1,1.0405924385163536,0.6573249907367731,1.883039616220447,0.3339263884197582,1.4380989376004365,5.880959510803223,1.0
669,2,169,1,-1,-1.7478893290673956,-2.1296961592260963,1.883039616220447,0.35668625222970957,1.4380989376004365,1.679099202156067,0.0
670,2,170,-1,-1,-1.1567980246844252,0.6573249907367731,1.883039616220447,0.35186170657787974,1.4380989376004365,4.52205753326416,0.0
671,2,171,1,1,2.0905145330058827,0.016749957470239885,1.883039616220447,0.32535682050669745,1.4380989376004365,3.5511281490325928,0.0
672,2,172,1,1,1.3237394232036008,0.016749957470239885,1.883039616220447,0.33161531474353895,1.4380989376004365,3.386133909225464,1.0
673,2,173,-1,-1,-1.3399262052549799,0.6573249907367731,1.883039616220447,0.35335641688870295,1.4380989376004365,4.176082611083984,1.0
674,2,174,1,1,1.0159368281084684,0.016749957470239885,1.883039616220447,0.33412762994895095,1.4380989376004365,2.4920921325683594,1.0
675,2,175,-1,-1,-1.3052735930072008,0.6573249907367731,1.883039616220447,0.35307357884235563,1.4380989376004365,4.646048545837402,1.0
676,2,176,1,-1,-2.720659274448069,-2.1296961592260963,1.883039616220447,0.36462609667576545,1.4380989376004365,2.8171072006225586,0.0
677,2,177,1,-1,-0.37064572923763717,-2.1296961592260963,1.883039616220447,0.3454450538365015,1.4380989376004365,1.9260962009429932,0.0
678,2,178,-1,-1,-1.6057995478410865,0.6573249907367731,1.883039616220447,0.35552650139070774,1.4380989376004365,2.956113815307617,1.0
679,2,179,1,-1,-0.5671684272739728,-2.1296961592260963,1.883039616220447,0.34704909152283964,1.4380989376004365,2.2280921936035156,0.0
680,2,180,1,1,2.5207912034521973,0.016749957470239885,1.883039616220447,0.32184485979251887,1.4380989376004365,2.4170899391174316,1.0
681,2,181,-1,1,1.724836614923357,2.8037711074331093,1.883039616220447,0.3283415198189245,1.4380989376004365,2.869109630584717,1.0
682,2,182,1,1,2.259983947926357,0.016749957470239885,1.883039616220447,0.3239735943911886,1.4380989376004365,2.717102527618408,0.0
683,2,183,-1,-1,0.3156624260672163,0.6573249907367731,1.883039616220447,0.3398433388358929,1.4380989376004365,3.628122568130493,1.0
684,2,184,1,1,0.4184347279323535,0.016749957470239885,1.883039616220447,0.3390045011497091,1.4380989376004365,5.078017234802246,1.0
685,2,185,1,-1,-0.7299086100335872,-2.1296961592260963,1.883039616220447,0.34837739298031156,1.4380989376004365,1.7540984153747559,0.0
686,2,186,1,1,2.080060041874752,0.016749957470239885,1.883039616220447,0.3254421510966669,1.4380989376004365,2.869109630584717,0.0
687,2,187,-1,-1,-0.14677124713321565,0.6573249907367731,1.883039616220447,0.3436177681850571,1.4380989376004365,3.5991246700286865,1.0
688,2,188,-1,1,-0.19047482569639507,2.8037711074331093,1.883039616220447,0.34397448111309875,1.4380989376004365,2.16709303855896,1.0
689,2,189,1,1,1.2070563127047638,0.016749957470239885,1.883039616220447,0.33256769382478224,1.4380989376004365,3.154123067855835,0.0
690,2,190,1,1,0.5017065116296024,0.016749957470239885,1.883039616220447,0.3383248286203085,1.4380989376004365,2.7441039085388184,0.0
691,2,191,1,1,-0.2522387129818613,0.016749957470239885,1.883039616220447,0.3444786040660734,1.4380989376004365,5.1540117263793945,0.0
692,2,192,-1,1,-0.16583559305167817,2.8037711074331093,1.883039616220447,0.3437733732608278,1.4380989376004365,2.0470945835113525,1.0
693,2,193,1,1,1.8785360024440574,0.016749957470239885,1.883039616220447,0.32708701022581527,1.4380989376004365,3.202125310897827,0.0
694,2,194,-1,1,-0.9977341293981588,2.8037711074331093,1.883039616220447,0.3505634113421419,1.4380989376004365,2.1800928115844727,1.0
695,2,195,-1,-1,-0.29762294884093277,0.6573249907367731,1.883039616220447,0.34484903468508593,1.4380989376004365,4.006094932556152,1.0
696,2,196,-1,1,3.1644756837872605,2.8037711074331093,1.883039616220447,0.3165910434400814,1.4380989376004365,4.02109432220459,1.0
697,2,197,1,1,-0.6406489681357119,0.016749957470239885,1.883039616220447,0.34764884696041737,1.4380989376004365,3.52413010597229,1.0
698,2,198,-1,-1,-1.45808604640451,0.6573249907367731,1.883039616220447,0.3543208491914822,1.4380989376004365,4.044092178344727,1.0
699,2,199,1,1,0.8502230322647011,0.016749957470239885,1.883039616220447,0.3354802023303377,1.4380989376004365,4.080089569091797,0.0
700,2,200,1,-1,-2.535197130328067,-2.1296961592260963,1.883039616220447,0.3631123363237548,1.4380989376004365,2.265091896057129,0.0
701,2,201,-1,1,0.25792072789271026,2.8037711074331093,1.883039616220447,0.34031463228377723,1.4380989376004365,2.020094871520996,1.0
702,2,202,1,-1,-1.6327757060632484,-2.1296961592260963,1.883039616220447,0.35574668346053134,1.4380989376004365,2.3290910720825195,0.0
703,2,203,1,1,1.815469392633453,0.016749957470239885,1.883039616220447,0.3276017661288056,1.4380989376004365,3.2441272735595703,0.0
704,2,204,1,-1,-0.6157911174041084,-2.1296961592260963,1.883039616220447,0.3474459547257123,1.4380989376004365,1.7320986986160278,0.0
705,2,205,1,-1,-2.3219617176373055,-2.1296961592260963,1.883039616220447,0.3613718878084662,1.4380989376004365,2.4130899906158447,0.0
706,2,206,-1,1,1.9570919577681973,2.8037711074331093,1.883039616220447,0.3264458287537243,1.4380989376004365,2.5530948638916016,1.0
707,2,207,-1,-1,1.0812892012971198,0.6573249907367731,1.883039616220447,0.3335942174193364,1.4380989376004365,3.7541134357452393,1.0
708,2,208,1,-1,-2.249610661925134,-2.1296961592260963,1.883039616220447,0.36078135134032135,1.4380989376004365,2.3840904235839844,0.0
709,2,209,1,1,0.47425435342792155,0.016749957470239885,1.883039616220447,0.33854889584901443,1.4380989376004365,1.8010977506637573,0.0
710,2,210,1,-1,-0.17095289124673785,-2.1296961592260963,1.883039616220447,0.34381514115450684,1.4380989376004365,1.6240991353988647,0.0
711,2,211,1,-1,-1.514522011657216,-2.1296961592260963,1.883039616220447,0.35478148511819574,1.4380989376004365,1.8590970039367676,0.0
712,2,212,-1,-1,-1.0869460627217737,0.6573249907367731,1.883039616220447,0.3512915679599373,1.4380989376004365,2.7291030883789062,1.0
713,2,213,1,1,0.6475773917341711,0.016749957470239885,1.883039616220447,0.33713421607852573,1.4380989376004365,3.653120756149292,0.0
714,2,214,1,1,1.3088592024413757,0.016749957470239885,1.883039616220447,0.33173676857621137,1.4380989376004365,2.717102527618408,0.0
715,2,215,-1,1,0.44225368845682267,2.8037711074331093,1.883039616220447,0.33881008843956206,1.4380989376004365,2.065094470977783,1.0
716,2,216,-1,-1,-0.5333270307461027,0.6573249907367731,1.883039616220447,0.3467728746993815,1.4380989376004365,4.482060432434082,0.0
717,2,217,1,-1,-2.1635555874358428,-2.1296961592260963,1.883039616220447,0.36007896131636624,1.4380989376004365,1.9530959129333496,0.0
718,2,218,1,-1,-0.30858925048620867,-2.1296961592260963,1.883039616220447,0.3449385427230609,1.4380989376004365,1.9470958709716797,0.0
719,2,219,1,1,0.014273651375177998,0.016749957470239885,1.883039616220447,0.34230330380521123,1.4380989376004365,2.2470920085906982,0.0
720,2,220,-1,1,2.575928824502554,2.8037711074331093,1.883039616220447,0.3213948210795176,1.4380989376004365,2.2750916481018066,1.0
721,2,221,1,1,1.5928610487450885,0.016749957470239885,1.883039616220447,0.32941871743498113,1.4380989376004365,1.9530959129333496,0.0
722,2,222,-1,-1,0.011170007301820606,0.6573249907367731,1.883039616220447,0.34232863605491265,1.4380989376004365,5.51598596572876,0.0
723,2,223,1,-1,0.5113999490706598,-2.1296961592260963,1.883039616220447,0.33824570982578256,1.4380989376004365,1.9070963859558105,0.0
724,2,224,-1,1,1.7754610493046785,2.8037711074331093,1.883039616220447,0.3279283181816145,1.4380989376004365,2.1490933895111084,1.0
725,2,225,1,1,0.019057357790039586,0.016749957470239885,1.883039616220447,0.3422642587206155,1.4380989376004365,3.0041160583496094,0.0
726,2,226,-1,1,1.303463594284626,2.8037711074331093,1.883039616220447,0.33178080806330684,1.4380989376004365,2.35809063911438,1.0
727,2,227,1,-1,-1.414846493971899,-2.1296961592260963,1.883039616220447,0.3539679236905842,1.4380989376004365,2.1900928020477295,0.0
728,2,228,-1,-1,-0.11643032865742786,0.6573249907367731,1.883039616220447,0.34337012260945915,1.4380989376004365,8.383777618408203,1.0
729,2,229,-1,1,0.32159508325082575,2.8037711074331093,1.883039616220447,0.33979491590155647,1.4380989376004365,2.3230910301208496,1.0
730,2,230,1,-1,-2.9657618047515077,-2.1296961592260963,1.883039616220447,0.366626647754862,1.4380989376004365,2.0390946865081787,0.0
731,2,231,-1,-1,-2.009733937176976,0.6573249907367731,1.883039616220447,0.3588234538027032,1.4380989376004365,2.928112506866455,1.0
732,2,232,-1,1,1.5668173907903054,2.8037711074331093,1.883039616220447,0.32963128834545097,1.4380989376004365,2.4220898151397705,1.0
733,2,233,1,-1,-3.5018939005349585,-2.1296961592260963,1.883039616220447,0.3710026109137492,1.4380989376004365,1.8480972051620483,0.0
734,2,234,1,1,1.4288031679612114,0.016749957470239885,1.883039616220447,0.33075777407397283,1.4380989376004365,2.7941062450408936,0.0
735,2,235,1,1,0.2207050461868859,0.016749957470239885,1.883039616220447,0.3406183903563835,1.4380989376004365,1.813097596168518,0.0
736,2,236,-1,1,1.590686488744526,2.8037711074331093,1.883039616220447,0.32943646640864654,1.4380989376004365,2.8301079273223877,1.0
737,2,237,1,1,0.42608384816282574,0.016749957470239885,1.883039616220447,0.33894206827432316,1.4380989376004365,10.356072425842285,0.0
738,2,238,1,-1,-2.8262983330629456,-2.1296961592260963,1.883039616220447,0.3654883331139005,1.4380989376004365,2.8351082801818848,0.0
739,2,239,-1,-1,0.4519103725637672,0.6573249907367731,1.883039616220447,0.338731269629382,1.4380989376004365,4.043092727661133,1.0
740,2,240,-1,-1,0.011272312745581603,0.6573249907367731,1.883039616220447,0.34232780102776844,1.4380989376004365,5.377995491027832,1.0
741,2,241,1,-1,-0.09432658258477311,-2.1296961592260963,1.883039616220447,0.34318970964920537,1.4380989376004365,1.912096381187439,0.0
742,2,242,-1,1,2.3730478558067,2.8037711074331093,1.883039616220447,0.3230507555994517,1.4380989376004365,2.0470945835113525,1.0
743,2,243,-1,-1,-1.0460389830590748,0.6573249907367731,1.883039616220447,0.35095768033233676,1.4380989376004365,4.3910675048828125,1.0
744,2,244,-1,1,1.5786467324169204,2.8037711074331093,1.883039616220447,0.3295347360898426,1.4380989376004365,2.4730911254882812,1.0
745,2,245,1,1,0.8878620407398591,0.016749957470239885,1.883039616220447,0.335172989022797,1.4380989376004365,6.386922836303711,1.0
746,2,246,-1,1,1.6500828712421047,2.8037711074331093,1.883039616220447,0.3289516672637628,1.4380989376004365,2.4860918521881104,1.0
