,subj_idx,trial_idx,S,X,M,v,a,z,t,rt,response
0,1,0,-1,-1,-0.37595361094558244,-0.07472740031476971,1.1737868648073737,0.4790917894012553,1.2383499283349737,1.5673491954803467,0.0
1,1,1,1,1,0.2579478958580226,-1.106795237960309,1.1737868648073737,0.4790917894012553,1.2383499283349737,1.5133498907089233,0.0
2,1,2,-1,1,0.04025574269223353,-0.08860694870646434,1.1737868648073737,0.4790917894012553,1.2383499283349737,2.0383431911468506,1.0
3,1,3,1,1,0.538047782655362,-1.1161358736267886,1.1737868648073737,0.4790917894012553,1.2383499283349737,2.115342140197754,0.0
4,1,4,-1,-1,0.3562273236949478,-0.09914381629628721,1.1737868648073737,0.4790917894012553,1.2383499283349737,3.3413798809051514,1.0
5,1,5,-1,1,-0.024854286574865547,-0.08643569091492573,1.1737868648073737,0.4790917894012553,1.2383499283349737,1.9083448648452759,0.0
6,1,6,1,1,0.4406596603912194,-1.1128882215883924,1.1737868648073737,0.4790917894012553,1.2383499283349737,1.5043500661849976,0.0
7,1,7,1,1,1.9087848506984348,-1.1618465509623805,1.1737868648073737,0.4790917894012553,1.2383499283349737,3.905339002609253,0.0
8,1,8,-1,-1,0.9800117020393286,-0.11994547630114144,1.1737868648073737,0.4790917894012553,1.2383499283349737,2.6183583736419678,0.0
9,1,9,-1,1,0.7274304100141851,-0.1115225174347475,1.1737868648073737,0.4790917894012553,1.2383499283349737,2.377346992492676,0.0
10,1,10,-1,-1,-2.9460318313695835,0.010978326188091608,1.1737868648073737,0.4790917894012553,1.2383499283349737,2.3013434410095215,1.0
11,1,11,1,1,1.238179159750867,-1.1394835164512624,1.1737868648073737,0.4790917894012553,1.2383499283349737,1.4803502559661865,0.0
12,1,12,-1,1,2.0706386170778726,-0.15631517561773736,1.1737868648073737,0.4790917894012553,1.2383499283349737,1.7813465595245361,1.0
13,1,13,1,1,1.5051986171561542,-1.1483879522795015,1.1737868648073737,0.4790917894012553,1.2383499283349737,2.02034330368042,0.0
14,1,14,-1,1,1.104439061683838,-0.12409481976097053,1.1737868648073737,0.4790917894012553,1.2383499283349737,5.500223636627197,0.0
15,1,15,1,-1,-0.2895935933870263,-1.0885360889767175,1.1737868648073737,0.4790917894012553,1.2383499283349737,1.4603501558303833,0.0
16,1,16,-1,1,1.4535286183177891,-0.13573608959786235,1.1737868648073737,0.4790917894012553,1.2383499283349737,4.100324630737305,1.0
17,1,17,-1,-1,-2.099888023042562,-0.01723846863249609,1.1737868648073737,0.4790917894012553,1.2383499283349737,1.5193498134613037,1.0
18,1,18,1,-1,-2.397157082274415,-1.0182540802306181,1.1737868648073737,0.4790917894012553,1.2383499283349737,1.969344139099121,0.0
19,1,19,-1,-1,-2.141227994559072,-0.015859883239929484,1.1737868648073737,0.4790917894012553,1.2383499283349737,2.1793413162231445,0.0
20,1,20,-1,1,0.9895397204086054,-0.12026321205329951,1.1737868648073737,0.4790917894012553,1.2383499283349737,4.029330253601074,1.0
21,1,21,-1,1,0.07566322205222953,-0.0897877002174759,1.1737868648073737,0.4790917894012553,1.2383499283349737,6.233170509338379,0.0
22,1,22,-1,-1,-1.5432243775237744,-0.035801818875216745,1.1737868648073737,0.4790917894012553,1.2383499283349737,1.9723440408706665,0.0
23,1,23,-1,-1,0.3750383382805611,-0.0997711169202542,1.1737868648073737,0.4790917894012553,1.2383499283349737,2.7843661308288574,1.0
24,1,24,1,-1,-2.531973799549546,-1.0137582774931864,1.1737868648073737,0.4790917894012553,1.2383499283349737,1.9603441953659058,0.0
25,1,25,-1,-1,-0.8949697721008575,-0.057419500187434115,1.1737868648073737,0.4790917894012553,1.2383499283349737,1.5493494272232056,1.0
26,1,26,1,-1,1.2016968958558967,-1.138266923544969,1.1737868648073737,0.4790917894012553,1.2383499283349737,3.1283822059631348,0.0
27,1,27,-1,1,1.0320666999204426,-0.12168138121487196,1.1737868648073737,0.4790917894012553,1.2383499283349737,3.5923616886138916,1.0
28,1,28,1,-1,-2.7661001126049576,-1.0059507463470956,1.1737868648073737,0.4790917894012553,1.2383499283349737,3.2803843021392822,1.0
29,1,29,-1,-1,-2.3546078786405493,-0.008744193981537085,1.1737868648073737,0.4790917894012553,1.2383499283349737,1.92234468460083,1.0
30,1,30,1,-1,0.9047708868649822,-1.1283651784868114,1.1737868648073737,0.4790917894012553,1.2383499283349737,1.6573480367660522,0.0
31,1,31,-1,-1,-2.0290313124160813,-0.019601363976920153,1.1737868648073737,0.4790917894012553,1.2383499283349737,4.150321006774902,0.0
32,1,32,-1,1,-0.3466364740304462,-0.07570505402909171,1.1737868648073737,0.4790917894012553,1.2383499283349737,3.236387252807617,0.0
33,1,33,-1,1,1.182116131205828,-0.12668515713789952,1.1737868648073737,0.4790917894012553,1.2383499283349737,2.154341697692871,0.0
34,1,34,-1,-1,-0.5738807243641726,-0.06812702258488258,1.1737868648073737,0.4790917894012553,1.2383499283349737,2.956374168395996,1.0
35,1,35,1,1,-0.1372981340383288,-1.093614764358206,1.1737868648073737,0.4790917894012553,1.2383499283349737,2.0923423767089844,0.0
36,1,36,-1,1,4.029825955485503,-0.2216492082005011,1.1737868648073737,0.4790917894012553,1.2383499283349737,5.731206893920898,1.0
37,1,37,-1,-1,-2.374467780071533,-0.0080819155859259,1.1737868648073737,0.4790917894012553,1.2383499283349737,3.900339365005493,1.0
38,1,38,1,1,0.09270022015629353,-1.1012846383270458,1.1737868648073737,0.4790917894012553,1.2383499283349737,1.9933438301086426,0.0
39,1,39,-1,1,0.14801974921939653,-0.09220061071911152,1.1737868648073737,0.4790917894012553,1.2383499283349737,5.056255340576172,0.0
40,1,40,1,-1,-0.9534110154909272,-1.066399426374563,1.1737868648073737,0.4790917894012553,1.2383499283349737,1.3803499937057495,0.0
41,1,41,-1,1,0.5595711455042971,-0.1059248277999618,1.1737868648073737,0.4790917894012553,1.2383499283349737,2.059342861175537,0.0
42,1,42,-1,-1,-1.432586193182122,-0.03949132758067337,1.1737868648073737,0.4790917894012553,1.2383499283349737,2.206341028213501,1.0
43,1,43,-1,-1,-1.43905853807015,-0.039275490951111956,1.1737868648073737,0.4790917894012553,1.2383499283349737,2.438349962234497,1.0
44,1,44,-1,-1,0.4375451706805611,-0.10185556456066522,1.1737868648073737,0.4790917894012553,1.2383499283349737,3.926337480545044,1.0
45,1,45,1,1,0.4066402628311706,-1.111753759158454,1.1737868648073737,0.4790917894012553,1.2383499283349737,2.8103673458099365,0.0
46,1,46,1,-1,-0.2251713384534212,-1.09068441120215,1.1737868648073737,0.4790917894012553,1.2383499283349737,1.624348521232605,0.0
47,1,47,1,1,-0.36965683219180145,-1.085866178779664,1.1737868648073737,0.4790917894012553,1.2383499283349737,1.879345178604126,0.0
48,1,48,-1,1,1.1029066292735958,-0.12404371694550265,1.1737868648073737,0.4790917894012553,1.2383499283349737,4.23631477355957,0.0
49,1,49,1,1,2.9100810602936464,-1.195237293082969,1.1737868648073737,0.4790917894012553,1.2383499283349737,2.2433409690856934,0.0
50,1,50,1,1,0.586026369432139,-1.1177358403529398,1.1737868648073737,0.4790917894012553,1.2383499283349737,1.9903438091278076,0.0
51,1,51,1,1,1.9558797350734454,-1.1634170484078874,1.1737868648073737,0.4790917894012553,1.2383499283349737,3.0473785400390625,0.0
52,1,52,1,1,1.4171194449455942,-1.1454507306089363,1.1737868648073737,0.4790917894012553,1.2383499283349737,2.924372673034668,1.0
53,1,53,1,1,1.6624607930908715,-1.1536322553255318,1.1737868648073737,0.4790917894012553,1.2383499283349737,1.927344560623169,0.0
54,1,54,-1,-1,-1.8641467019195035,-0.025099856287173317,1.1737868648073737,0.4790917894012553,1.2383499283349737,3.0873804092407227,1.0
55,1,55,-1,1,2.6928873529878876,-0.1770656257607905,1.1737868648073737,0.4790917894012553,1.2383499283349737,2.5073533058166504,1.0
56,1,56,1,-1,-1.786508666711391,-1.0386176884966016,1.1737868648073737,0.4790917894012553,1.2383499283349737,1.9333446025848389,0.0
57,1,57,-1,-1,-1.3653077128929447,-0.04173489782899099,1.1737868648073737,0.4790917894012553,1.2383499283349737,1.8053462505340576,1.0
58,1,58,-1,1,0.15741989975454662,-0.09251408239652933,1.1737868648073737,0.4790917894012553,1.2383499283349737,3.4473721981048584,1.0
59,1,59,1,-1,-2.9515551755571794,-0.999766280529035,1.1737868648073737,0.4790917894012553,1.2383499283349737,2.014343500137329,0.0
60,1,60,-1,-1,-2.388789077132232,-0.007604335892321068,1.1737868648073737,0.4790917894012553,1.2383499283349737,2.468351364135742,0.0
61,1,61,1,-1,-0.9539135254359852,-1.0663826689157536,1.1737868648073737,0.4790917894012553,1.2383499283349737,4.951263427734375,0.0
62,1,62,-1,-1,-1.228156794344768,-0.046308540382472105,1.1737868648073737,0.4790917894012553,1.2383499283349737,2.622358560562134,1.0
63,1,63,1,1,1.6504123056762028,-1.1532304681896661,1.1737868648073737,0.4790917894012553,1.2383499283349737,1.720347285270691,0.0
64,1,64,1,1,-0.14994893040037405,-1.0931928917146294,1.1737868648073737,0.4790917894012553,1.2383499283349737,2.371346950531006,1.0
65,1,65,-1,-1,-1.1464884833145836,-0.049031975752446506,1.1737868648073737,0.4790917894012553,1.2383499283349737,2.670360803604126,0.0
66,1,66,1,1,0.0011564368260937874,-1.0982318804791384,1.1737868648073737,0.4790917894012553,1.2383499283349737,1.5363496541976929,0.0
67,1,67,-1,1,0.14369742441418398,-0.09205647192027334,1.1737868648073737,0.4790917894012553,1.2383499283349737,1.9683440923690796,1.0
68,1,68,-1,1,1.7067786624712542,-0.1441813496870567,1.1737868648073737,0.4790917894012553,1.2383499283349737,1.5433495044708252,0.0
69,1,69,1,1,1.7983597072503499,-1.1581641466416905,1.1737868648073737,0.4790917894012553,1.2383499283349737,1.8433456420898438,0.0
70,1,70,-1,1,1.3480115053844441,-0.13221735590696915,1.1737868648073737,0.4790917894012553,1.2383499283349737,1.827345848083496,0.0
71,1,71,1,-1,-0.006806635535329009,-1.097966331790189,1.1737868648073737,0.4790917894012553,1.2383499283349737,2.5923571586608887,0.0
72,1,72,-1,-1,0.15094724335221987,-0.09229823537873962,1.1737868648073737,0.4790917894012553,1.2383499283349737,2.5393548011779785,0.0
73,1,73,1,1,1.3831062472965032,-1.1443164749306327,1.1737868648073737,0.4790917894012553,1.2383499283349737,3.287383794784546,0.0
74,1,74,1,1,0.23672184678760566,-1.1060874019334095,1.1737868648073737,0.4790917894012553,1.2383499283349737,2.10734224319458,0.0
75,1,75,1,1,-0.6717538054681613,-1.075791994903387,1.1737868648073737,0.4790917894012553,1.2383499283349737,2.472351551055908,0.0
76,1,76,-1,1,-0.9142037383838626,-0.05677809517465418,1.1737868648073737,0.4790917894012553,1.2383499283349737,2.2403407096862793,1.0
77,1,77,-1,1,0.6529979649819553,-0.10904038022733632,1.1737868648073737,0.4790917894012553,1.2383499283349737,2.7633652687072754,0.0
78,1,78,1,1,-0.10170786425984679,-1.0948016114757595,1.1737868648073737,0.4790917894012553,1.2383499283349737,2.065342903137207,0.0
79,1,79,1,1,0.457094049586772,-1.1134362676573573,1.1737868648073737,0.4790917894012553,1.2383499283349737,3.9413363933563232,0.0
80,1,80,-1,1,1.5554040979937667,-0.13913338386271032,1.1737868648073737,0.4790917894012553,1.2383499283349737,2.660360336303711,0.0
81,1,81,1,-1,0.9347162985056621,-1.1293637836030668,1.1737868648073737,0.4790917894012553,1.2383499283349737,1.624348521232605,0.0
82,1,82,-1,1,0.030663224629913,-0.08828706204971216,1.1737868648073737,0.4790917894012553,1.2383499283349737,4.831272125244141,1.0
83,1,83,1,1,1.965458620679358,-1.163736480456071,1.1737868648073737,0.4790917894012553,1.2383499283349737,1.9943437576293945,0.0
84,1,84,1,1,2.6240431805426208,-1.1856986400970084,1.1737868648073737,0.4790917894012553,1.2383499283349737,2.111342191696167,0.0
85,1,85,1,1,1.0637299206463262,-1.1336660675283035,1.1737868648073737,0.4790917894012553,1.2383499283349737,3.0493783950805664,0.0
86,1,86,-1,1,1.2007297093507667,-0.12730587374685415,1.1737868648073737,0.4790917894012553,1.2383499283349737,2.359346389770508,0.0
87,1,87,-1,1,1.5537238979851862,-0.13907735336478183,1.1737868648073737,0.4790917894012553,1.2383499283349737,2.683361530303955,0.0
88,1,88,-1,-1,-1.1666739918756637,-0.048358839167610704,1.1737868648073737,0.4790917894012553,1.2383499283349737,1.5143499374389648,1.0
89,1,89,-1,1,-1.7800209748140166,-0.027905240380879118,1.1737868648073737,0.4790917894012553,1.2383499283349737,2.730363607406616,1.0
90,1,90,-1,1,2.8559943993469314,-0.1825048407211941,1.1737868648073737,0.4790917894012553,1.2383499283349737,5.290238857269287,0.0
91,1,91,1,1,1.2958417398898763,-1.141406420308262,1.1737868648073737,0.4790917894012553,1.2383499283349737,1.6373482942581177,0.0
92,1,92,-1,-1,-1.61451079087408,-0.03342459401201268,1.1737868648073737,0.4790917894012553,1.2383499283349737,2.8363685607910156,1.0
93,1,93,1,-1,-0.3998697158256037,-1.0848586541366378,1.1737868648073737,0.4790917894012553,1.2383499283349737,1.808346152305603,0.0
94,1,94,1,1,1.8616625770279054,-1.1602751401518827,1.1737868648073737,0.4790917894012553,1.2383499283349737,1.9573442935943604,0.0
95,1,95,1,-1,-1.3846917205985994,-1.0520172858372914,1.1737868648073737,0.4790917894012553,1.2383499283349737,2.111342191696167,0.0
96,1,96,1,-1,-0.9639624783526701,-1.0660475612900504,1.1737868648073737,0.4790917894012553,1.2383499283349737,1.9913437366485596,0.0
97,1,97,-1,1,0.8637579673103516,-0.1160687029350864,1.1737868648073737,0.4790917894012553,1.2383499283349737,3.0933804512023926,0.0
98,1,98,-1,1,1.2619162027488982,-0.12934629136028547,1.1737868648073737,0.4790917894012553,1.2383499283349737,2.2533411979675293,1.0
99,1,99,1,-1,0.06240973886168999,-1.1002745259947266,1.1737868648073737,0.4790917894012553,1.2383499283349737,1.7153472900390625,0.0
100,1,100,1,-1,-1.1854618047390026,-1.058661108793401,1.1737868648073737,0.4790917894012553,1.2383499283349737,1.6803478002548218,0.0
101,1,101,-1,-1,-1.3611793579961655,-0.041872568213058806,1.1737868648073737,0.4790917894012553,1.2383499283349737,1.967344045639038,0.0
102,1,102,1,1,0.8454791258110133,-1.1263879454919627,1.1737868648073737,0.4790917894012553,1.2383499283349737,1.7493469715118408,0.0
103,1,103,1,-1,-2.53108048437569,-1.0137880673359092,1.1737868648073737,0.4790917894012553,1.2383499283349737,2.901371479034424,0.0
104,1,104,-1,1,2.198430294957999,-0.160576710736279,1.1737868648073737,0.4790917894012553,1.2383499283349737,2.2693419456481934,0.0
105,1,105,1,1,0.14977319083728313,-1.1031878801727684,1.1737868648073737,0.4790917894012553,1.2383499283349737,1.9093449115753174,1.0
106,1,106,-1,-1,-0.5861339591328589,-0.06771840763319947,1.1737868648073737,0.4790917894012553,1.2383499283349737,2.4863522052764893,1.0
107,1,107,1,-1,-2.025153384823515,-1.0306594797622013,1.1737868648073737,0.4790917894012553,1.2383499283349737,2.5753564834594727,0.0
108,1,108,-1,-1,-2.256749913108731,-0.01200751412617175,1.1737868648073737,0.4790917894012553,1.2383499283349737,2.426349401473999,1.0
109,1,109,-1,-1,-0.601983675512448,-0.06718985895075785,1.1737868648073737,0.4790917894012553,1.2383499283349737,1.874345302581787,0.0
110,1,110,-1,1,1.7291446341222692,-0.14492719930130554,1.1737868648073737,0.4790917894012553,1.2383499283349737,1.4903502464294434,1.0
111,1,111,1,-1,-1.3695517153892813,-1.052522167414595,1.1737868648073737,0.4790917894012553,1.2383499283349737,1.4473501443862915,0.0
112,1,112,1,1,2.3106031643199234,-1.1752461939060894,1.1737868648073737,0.4790917894012553,1.2383499283349737,1.787346363067627,0.0
113,1,113,-1,-1,-1.621038826596756,-0.03320690023141005,1.1737868648073737,0.4790917894012553,1.2383499283349737,2.7793660163879395,0.0
114,1,114,1,-1,-0.9641123132794458,-1.0660425646673202,1.1737868648073737,0.4790917894012553,1.2383499283349737,1.577349066734314,0.0
115,1,115,1,-1,-0.1282689425754422,-1.093915865471748,1.1737868648073737,0.4790917894012553,1.2383499283349737,1.7093473672866821,0.0
116,1,116,1,-1,-1.5931694638741405,-1.0450650708015328,1.1737868648073737,0.4790917894012553,1.2383499283349737,1.4003500938415527,0.0
117,1,117,-1,-1,-1.5857616593298864,-0.034383306157713414,1.1737868648073737,0.4790917894012553,1.2383499283349737,1.502350091934204,1.0
118,1,118,-1,-1,-1.4135016876350757,-0.04012774844905754,1.1737868648073737,0.4790917894012553,1.2383499283349737,1.572349190711975,0.0
119,1,119,-1,-1,0.6810860410741895,-0.10997704781528056,1.1737868648073737,0.4790917894012553,1.2383499283349737,2.067342758178711,0.0
120,1,120,1,1,-1.171205310780321,-1.059136527464476,1.1737868648073737,0.4790917894012553,1.2383499283349737,1.5573493242263794,0.0
121,1,121,1,1,1.3580031065123306,-1.1434793475228697,1.1737868648073737,0.4790917894012553,1.2383499283349737,1.785346508026123,0.0
122,1,122,1,1,-0.18782893622012042,-1.091929687586088,1.1737868648073737,0.4790917894012553,1.2383499283349737,1.4133501052856445,0.0
123,1,123,1,1,2.4282792577856966,-1.1791703994039433,1.1737868648073737,0.4790917894012553,1.2383499283349737,1.833345890045166,0.0
124,1,124,1,-1,-0.9812190612261047,-1.065472097103641,1.1737868648073737,0.4790917894012553,1.2383499283349737,1.6273484230041504,0.0
125,1,125,1,1,2.0500326030168,-1.1665568127486325,1.1737868648073737,0.4790917894012553,1.2383499283349737,1.7813465595245361,0.0
126,1,126,1,1,1.0078298979458893,-1.1318019405850088,1.1737868648073737,0.4790917894012553,1.2383499283349737,1.808346152305603,0.0
127,1,127,-1,1,1.6835829750391718,-0.14340783111190145,1.1737868648073737,0.4790917894012553,1.2383499283349737,3.816345453262329,1.0
128,1,128,-1,-1,-0.7192301497612961,-0.06327998018693613,1.1737868648073737,0.4790917894012553,1.2383499283349737,1.5003501176834106,0.0
129,1,129,1,-1,-0.809972880263514,-1.071182731991562,1.1737868648073737,0.4790917894012553,1.2383499283349737,2.5203537940979004,0.0
130,1,130,1,-1,-0.9218389733537424,-1.0674522755785456,1.1737868648073737,0.4790917894012553,1.2383499283349737,1.5363496541976929,0.0
131,1,131,1,-1,-0.6982375373126881,-1.0749088282121149,1.1737868648073737,0.4790917894012553,1.2383499283349737,2.671360969543457,0.0
132,1,132,-1,-1,-0.0490973990629594,-0.0856272433151714,1.1737868648073737,0.4790917894012553,1.2383499283349737,4.16431999206543,0.0
133,1,133,-1,-1,-1.5110335299935522,-0.03687530370240826,1.1737868648073737,0.4790917894012553,1.2383499283349737,1.6183485984802246,0.0
134,1,134,-1,1,0.44761577787450924,-0.10219139430274206,1.1737868648073737,0.4790917894012553,1.2383499283349737,1.735347032546997,1.0
135,1,135,1,1,1.4386565397990494,-1.1461689392402954,1.1737868648073737,0.4790917894012553,1.2383499283349737,1.6333483457565308,0.0
136,1,136,-1,-1,-1.095320503984445,-0.05073830080019134,1.1737868648073737,0.4790917894012553,1.2383499283349737,1.6573480367660522,0.0
137,1,137,-1,1,0.5600322917434597,-0.1059402058818962,1.1737868648073737,0.4790917894012553,1.2383499283349737,2.392347812652588,0.0
138,1,138,1,-1,-1.5130865711038226,-1.0477356364095314,1.1737868648073737,0.4790917894012553,1.2383499283349737,2.2543413639068604,0.0
139,1,139,-1,1,0.939398579915004,-0.11859112953085504,1.1737868648073737,0.4790917894012553,1.2383499283349737,1.878345251083374,0.0
140,1,140,-1,-1,-2.207761456047731,-0.013641157518540767,1.1737868648073737,0.4790917894012553,1.2383499283349737,3.9203379154205322,1.0
141,1,141,-1,1,2.1891206618785426,-0.16026625759123103,1.1737868648073737,0.4790917894012553,1.2383499283349737,2.1713414192199707,1.0
142,1,142,-1,1,2.8590963686174256,-0.18260828369339804,1.1737868648073737,0.4790917894012553,1.2383499283349737,1.602348804473877,0.0
143,1,143,-1,1,0.8817927543608545,-0.11667011829832494,1.1737868648073737,0.4790917894012553,1.2383499283349737,5.91619348526001,1.0
144,1,144,1,-1,-1.9440629083388963,-1.033363645784989,1.1737868648073737,0.4790917894012553,1.2383499283349737,2.7963666915893555,0.0
145,1,145,-1,-1,-2.215584612428646,-0.013380274680095033,1.1737868648073737,0.4790917894012553,1.2383499283349737,2.7503645420074463,1.0
146,1,146,1,-1,-1.91790660364663,-1.034235893593817,1.1737868648073737,0.4790917894012553,1.2383499283349737,3.0103766918182373,0.0
147,1,147,-1,1,1.2898683820611427,-0.13027842712808282,1.1737868648073737,0.4790917894012553,1.2383499283349737,1.7143473625183105,0.0
148,1,148,1,1,0.6612832585303156,-1.1202454707226492,1.1737868648073737,0.4790917894012553,1.2383499283349737,3.0483784675598145,0.0
149,1,149,1,-1,-0.5269009198033319,-1.080622478934294,1.1737868648073737,0.4790917894012553,1.2383499283349737,1.7483469247817993,0.0
150,1,150,1,1,0.41543322366328406,-1.1120469825670798,1.1737868648073737,0.4790917894012553,1.2383499283349737,2.0773427486419678,0.0
151,1,151,1,1,0.6078529217779477,-1.1184637016728733,1.1737868648073737,0.4790917894012553,1.2383499283349737,1.8723453283309937,0.0
152,1,152,1,-1,0.1774579489926038,-1.104111098109056,1.1737868648073737,0.4790917894012553,1.2383499283349737,2.5283541679382324,0.0
153,1,153,-1,1,1.4760436026104764,-0.13648690841367525,1.1737868648073737,0.4790917894012553,1.2383499283349737,1.5613492727279663,0.0
154,1,154,-1,1,1.6946270384088669,-0.1437761232001038,1.1737868648073737,0.4790917894012553,1.2383499283349737,1.8733453750610352,0.0
155,1,155,1,-1,-2.179657607472952,-1.025507147609546,1.1737868648073737,0.4790917894012553,1.2383499283349737,2.060342788696289,0.0
156,1,156,-1,-1,-2.280628987999384,-0.011211206276295474,1.1737868648073737,0.4790917894012553,1.2383499283349737,1.7143473625183105,1.0
157,1,157,-1,1,1.0176963091205768,-0.12120216436697798,1.1737868648073737,0.4790917894012553,1.2383499283349737,2.663360595703125,1.0
158,1,158,-1,1,0.8329118790450573,-0.11504006249000599,1.1737868648073737,0.4790917894012553,1.2383499283349737,1.551349401473999,1.0
159,1,159,-1,1,-0.15265310924428666,-0.08217391753540343,1.1737868648073737,0.4790917894012553,1.2383499283349737,2.0943424701690674,0.0
160,1,160,1,1,0.5530238623447568,-1.1166352886950712,1.1737868648073737,0.4790917894012553,1.2383499283349737,2.9913759231567383,0.0
161,1,161,-1,-1,-2.462835279274333,-0.005135078926157791,1.1737868648073737,0.4790917894012553,1.2383499283349737,1.7703466415405273,1.0
162,1,162,1,-1,-0.5989699161954272,-1.0782191568699961,1.1737868648073737,0.4790917894012553,1.2383499283349737,3.285383939743042,0.0
163,1,163,-1,1,1.26954425781881,-0.12960066805449472,1.1737868648073737,0.4790917894012553,1.2383499283349737,2.673360824584961,1.0
164,1,164,-1,1,0.10973389895890628,-0.09092387268628474,1.1737868648073737,0.4790917894012553,1.2383499283349737,1.7913463115692139,1.0
165,1,165,-1,-1,0.7110229148268981,-0.11097536821417373,1.1737868648073737,0.4790917894012553,1.2383499283349737,3.368377923965454,0.0
166,1,166,1,-1,-0.38186315910660884,-1.0854591280884236,1.1737868648073737,0.4790917894012553,1.2383499283349737,1.3683500289916992,0.0
167,1,167,1,-1,-1.5169659256296022,-1.047606269569506,1.1737868648073737,0.4790917894012553,1.2383499283349737,1.5563493967056274,0.0
168,1,168,1,-1,-1.847818347127223,-1.0365731629020343,1.1737868648073737,0.4790917894012553,1.2383499283349737,4.656284332275391,0.0
169,1,169,-1,-1,-0.7300041950238026,-0.06292069253208588,1.1737868648073737,0.4790917894012553,1.2383499283349737,2.8363685607910156,0.0
170,1,170,1,-1,-2.0713058481980045,-1.0291204097167945,1.1737868648073737,0.4790917894012553,1.2383499283349737,1.4973500967025757,0.0
171,1,171,-1,-1,-1.7862986824687612,-0.02769589441971468,1.1737868648073737,0.4790917894012553,1.2383499283349737,1.831345796585083,0.0
172,1,172,1,1,1.9221678356337928,-1.1622928402766695,1.1737868648073737,0.4790917894012553,1.2383499283349737,3.6573569774627686,0.0
173,1,173,1,-1,0.2879350755296326,-1.1077952359366752,1.1737868648073737,0.4790917894012553,1.2383499283349737,1.6783478260040283,0.0
174,1,174,1,-1,0.5527102908591763,-1.1166248318647036,1.1737868648073737,0.4790917894012553,1.2383499283349737,1.4783501625061035,0.0
175,1,175,-1,1,0.5553076210886965,-0.10578264984810108,1.1737868648073737,0.4790917894012553,1.2383499283349737,1.5083500146865845,0.0
176,1,176,-1,1,2.1902955996149007,-0.16030543884707374,1.1737868648073737,0.4790917894012553,1.2383499283349737,1.6383483409881592,1.0
177,1,177,1,1,0.8420117843629332,-1.126272318264947,1.1737868648073737,0.4790917894012553,1.2383499283349737,1.6443482637405396,1.0
178,1,178,1,1,1.4250478972965228,-1.1457151248065058,1.1737868648073737,0.4790917894012553,1.2383499283349737,1.944344401359558,0.0
179,1,179,-1,-1,-1.3351607200962996,-0.0427402251762212,1.1737868648073737,0.4790917894012553,1.2383499283349737,3.0423781871795654,1.0
180,1,180,1,1,0.04429146774682968,-1.0996703266452537,1.1737868648073737,0.4790917894012553,1.2383499283349737,3.201385498046875,0.0
181,1,181,1,-1,-0.9343076757409436,-1.067036475316845,1.1737868648073737,0.4790917894012553,1.2383499283349737,1.8263459205627441,0.0
182,1,182,1,1,0.022743716593685015,-1.0989517626527623,1.1737868648073737,0.4790917894012553,1.2383499283349737,1.9633440971374512,0.0
183,1,183,1,-1,-1.2358992548850727,-1.0569791450798578,1.1737868648073737,0.4790917894012553,1.2383499283349737,2.5843567848205566,0.0
184,1,184,1,1,1.3403631612972382,-1.142891099154351,1.1737868648073737,0.4790917894012553,1.2383499283349737,2.607357978820801,0.0
185,1,185,1,1,3.0895879530126984,-1.2012234021945507,1.1737868648073737,0.4790917894012553,1.2383499283349737,2.5993576049804688,0.0
186,1,186,-1,-1,-0.2767174321548238,-0.07803668044914114,1.1737868648073737,0.4790917894012553,1.2383499283349737,1.883345127105713,0.0
187,1,187,1,1,-0.1489008654489523,-1.0932278420781514,1.1737868648073737,0.4790917894012553,1.2383499283349737,1.449350118637085,0.0
188,1,188,-1,1,-0.03602044624673306,-0.08606332721824164,1.1737868648073737,0.4790917894012553,1.2383499283349737,2.016343593597412,1.0
189,1,189,-1,-1,-1.811170917402037,-0.026866467148682217,1.1737868648073737,0.4790917894012553,1.2383499283349737,2.1453418731689453,1.0
190,1,190,1,-1,-0.05325800136813541,-1.0964172940900472,1.1737868648073737,0.4790917894012553,1.2383499283349737,3.142382860183716,0.0
191,1,191,-1,-1,-0.44606096815648777,-0.07238949404592276,1.1737868648073737,0.4790917894012553,1.2383499283349737,5.2142438888549805,1.0
192,1,192,-1,1,2.3303194153355467,-0.1649748853871331,1.1737868648073737,0.4790917894012553,1.2383499283349737,2.2593417167663574,1.0
193,1,193,1,-1,-1.2884853337999986,-1.055225529932457,1.1737868648073737,0.4790917894012553,1.2383499283349737,1.4983501434326172,0.0
194,1,194,-1,-1,-2.868170521436681,0.008381844850973805,1.1737868648073737,0.4790917894012553,1.2383499283349737,1.9473443031311035,1.0
195,1,195,-1,1,0.4936048823760102,-0.10372501673539583,1.1737868648073737,0.4790917894012553,1.2383499283349737,4.515295028686523,0.0
196,1,196,-1,1,0.33005042503400683,-0.0982708817297441,1.1737868648073737,0.4790917894012553,1.2383499283349737,4.3183088302612305,1.0
197,1,197,1,1,1.1697913544136225,-1.137202952967324,1.1737868648073737,0.4790917894012553,1.2383499283349737,3.2583858966827393,0.0
198,1,198,-1,1,0.9559092622272808,-0.11914171978580773,1.1737868648073737,0.4790917894012553,1.2383499283349737,4.9412641525268555,1.0
199,1,199,-1,-1,-2.1421981521590183,-0.015827530893115727,1.1737868648073737,0.4790917894012553,1.2383499283349737,2.0413432121276855,0.0
200,1,200,-1,1,1.4014696252438417,-0.1340000514543719,1.1737868648073737,0.4790917894012553,1.2383499283349737,2.2843427658081055,1.0
201,1,201,1,-1,-0.35156076794158797,-1.0864696375853462,1.1737868648073737,0.4790917894012553,1.2383499283349737,1.6193485260009766,0.0
202,1,202,-1,-1,-1.4418414441244234,-0.039182687944855056,1.1737868648073737,0.4790917894012553,1.2383499283349737,2.412348747253418,0.0
203,1,203,-1,1,1.008984379222817,-0.12091164313879282,1.1737868648073737,0.4790917894012553,1.2383499283349737,4.544292449951172,1.0
204,1,204,1,-1,-2.2662989194574426,-1.022617875006953,1.1737868648073737,0.4790917894012553,1.2383499283349737,1.6103487014770508,0.0
205,1,205,-1,1,-0.4043191326122135,-0.07378148060588621,1.1737868648073737,0.4790917894012553,1.2383499283349737,2.8143675327301025,0.0
206,1,206,-1,-1,1.00369109739394,-0.12073512533434505,1.1737868648073737,0.4790917894012553,1.2383499283349737,2.5533552169799805,0.0
207,1,207,1,-1,-2.5540934053245077,-1.0130206435691158,1.1737868648073737,0.4790917894012553,1.2383499283349737,2.384347438812256,0.0
208,1,208,-1,1,2.573851828315558,-0.17309608660800618,1.1737868648073737,0.4790917894012553,1.2383499283349737,1.7243472337722778,0.0
209,1,209,1,1,0.27293151665758797,-1.107294904505889,1.1737868648073737,0.4790917894012553,1.2383499283349737,1.9373445510864258,0.0
210,1,210,-1,-1,-2.784720301839704,0.005598987255222385,1.1737868648073737,0.4790917894012553,1.2383499283349737,1.9643441438674927,1.0
211,1,211,1,-1,-2.982559933923632,-0.9987323488300985,1.1737868648073737,0.4790917894012553,1.2383499283349737,1.8733453750610352,0.0
212,1,212,1,1,0.5796823735703274,-1.11752428384468,1.1737868648073737,0.4790917894012553,1.2383499283349737,2.964374542236328,0.0
213,1,213,-1,1,-0.3266194877870181,-0.07637257081311696,1.1737868648073737,0.4790917894012553,1.2383499283349737,2.012343406677246,0.0
214,1,214,1,1,0.44092712568802717,-1.1128971408918575,1.1737868648073737,0.4790917894012553,1.2383499283349737,1.5563493967056274,0.0
215,1,215,1,1,0.7004026484700481,-1.1215500052338907,1.1737868648073737,0.4790917894012553,1.2383499283349737,2.963374614715576,0.0
216,1,216,-1,1,1.0415846778309454,-0.12199878214266288,1.1737868648073737,0.4790917894012553,1.2383499283349737,3.945336103439331,1.0
217,1,217,1,-1,-0.3860858605382754,-1.0853183114817033,1.1737868648073737,0.4790917894012553,1.2383499283349737,1.8623454570770264,0.0
218,1,218,1,1,2.7987884286260916,-1.1915259601843502,1.1737868648073737,0.4790917894012553,1.2383499283349737,1.7013474702835083,0.0
219,1,219,1,-1,-1.2741459118159484,-1.055703714047247,1.1737868648073737,0.4790917894012553,1.2383499283349737,1.9053449630737305,0.0
220,1,220,1,1,1.942713111516286,-1.1629779742082818,1.1737868648073737,0.4790917894012553,1.2383499283349737,1.4073500633239746,0.0
221,1,221,-1,-1,-0.7985247968361456,-0.060635700615469704,1.1737868648073737,0.4790917894012553,1.2383499283349737,2.0503430366516113,0.0
222,1,222,-1,1,1.8017622633420407,-0.1473488169080137,1.1737868648073737,0.4790917894012553,1.2383499283349737,2.6173582077026367,0.0
223,1,223,-1,-1,0.49843494900907315,-0.10388608746334263,1.1737868648073737,0.4790917894012553,1.2383499283349737,1.577349066734314,1.0
224,1,224,-1,1,2.2879812312930423,-0.16356301208563645,1.1737868648073737,0.4790917894012553,1.2383499283349737,3.2903835773468018,0.0
225,1,225,1,-1,1.2491004583336047,-1.1398477146386756,1.1737868648073737,0.4790917894012553,1.2383499283349737,1.4843502044677734,0.0
226,1,226,-1,1,2.869150084791078,-0.18294355016189262,1.1737868648073737,0.4790917894012553,1.2383499283349737,3.0803799629211426,0.0
227,1,227,1,1,-1.0392496692666624,-1.0635369204300307,1.1737868648073737,0.4790917894012553,1.2383499283349737,3.0573787689208984,0.0
228,1,228,-1,1,0.3939844786454567,-0.10040292365340907,1.1737868648073737,0.4790917894012553,1.2383499283349737,1.8653454780578613,1.0
229,1,229,-1,1,0.8954090705027933,-0.1171241886289334,1.1737868648073737,0.4790917894012553,1.2383499283349737,2.212340831756592,1.0
230,1,230,-1,1,0.5474782047015023,-0.1055215582539911,1.1737868648073737,0.4790917894012553,1.2383499283349737,1.7013474702835083,0.0
231,1,231,1,1,1.9780494058580778,-1.1641563518757065,1.1737868648073737,0.4790917894012553,1.2383499283349737,1.97434401512146,0.0
232,1,232,-1,-1,-0.5621443958362929,-0.06851839999704254,1.1737868648073737,0.4790917894012553,1.2383499283349737,1.9063448905944824,1.0
233,1,233,1,-1,-1.0017896208206283,-1.0647861200230182,1.1737868648073737,0.4790917894012553,1.2383499283349737,2.1903412342071533,0.0
234,1,234,1,1,-0.11482050741109684,-1.0943643373886442,1.1737868648073737,0.4790917894012553,1.2383499283349737,1.7773466110229492,0.0
235,1,235,1,1,-0.9407575634479264,-1.0668213875785049,1.1737868648073737,0.4790917894012553,1.2383499283349737,2.883370876312256,0.0
236,1,236,-1,1,1.4613481999678604,-0.1359968532279114,1.1737868648073737,0.4790917894012553,1.2383499283349737,2.0283432006835938,0.0
237,1,237,1,1,-0.6878130553151784,-1.0752564588001308,1.1737868648073737,0.4790917894012553,1.2383499283349737,2.02634334564209,0.0
238,1,238,-1,1,1.5900917195515016,-0.1402901299036038,1.1737868648073737,0.4790917894012553,1.2383499283349737,1.5943489074707031,1.0
239,1,239,1,1,1.6744346614156977,-1.154031554100049,1.1737868648073737,0.4790917894012553,1.2383499283349737,1.930344581604004,0.0
240,1,240,-1,-1,-3.1015869261625255,0.016165702317153988,1.1737868648073737,0.4790917894012553,1.2383499283349737,2.118342161178589,1.0
241,1,241,-1,1,1.2240254174674907,-0.12808272776346577,1.1737868648073737,0.4790917894012553,1.2383499283349737,1.576349139213562,1.0
242,1,242,1,1,0.810435538305932,-1.125219328870678,1.1737868648073737,0.4790917894012553,1.2383499283349737,1.9463443756103516,0.0
243,1,243,-1,-1,-1.7172021582053567,-0.030000091919913985,1.1737868648073737,0.4790917894012553,1.2383499283349737,2.198341131210327,1.0
244,1,244,1,1,3.1499725282418423,-1.20323707782841,1.1737868648073737,0.4790917894012553,1.2383499283349737,1.5173498392105103,0.0
245,1,245,-1,1,1.548849878926541,-0.13891481693258678,1.1737868648073737,0.4790917894012553,1.2383499283349737,1.8923450708389282,0.0
246,1,246,1,1,0.4302899106278997,-1.112542416184473,1.1737868648073737,0.4790917894012553,1.2383499283349737,4.008331298828125,0.0
247,1,247,-1,-1,0.5790096798715814,-0.10657305465035863,1.1737868648073737,0.4790917894012553,1.2383499283349737,3.928337335586548,1.0
248,1,248,1,1,-0.03353758348349056,-1.0970749210557604,1.1737868648073737,0.4790917894012553,1.2383499283349737,1.7753465175628662,0.0
249,1,249,1,1,2.3464651545549238,-1.176442102226118,1.1737868648073737,0.4790917894012553,1.2383499283349737,1.883345127105713,0.0
250,1,250,-1,1,1.1203584439554763,-0.12462569162791412,1.1737868648073737,0.4790917894012553,1.2383499283349737,2.2763423919677734,1.0
251,1,251,-1,1,1.8269484553844095,-0.14818871386900023,1.1737868648073737,0.4790917894012553,1.2383499283349737,2.5233540534973145,0.0
252,1,252,1,-1,-2.097715416090822,-1.0282397162091443,1.1737868648073737,0.4790917894012553,1.2383499283349737,1.6603480577468872,0.0
253,1,253,1,-1,-0.26858797604142626,-1.0892365741529813,1.1737868648073737,0.4790917894012553,1.2383499283349737,1.7583467960357666,0.0
254,1,254,1,-1,-1.616085506998298,-1.0443008776696199,1.1737868648073737,0.4790917894012553,1.2383499283349737,2.2503411769866943,0.0
255,1,255,-1,1,1.7469676596799055,-0.14552155294461383,1.1737868648073737,0.4790917894012553,1.2383499283349737,1.8673453330993652,0.0
256,1,256,1,1,1.4512353143897252,-1.146588410136645,1.1737868648073737,0.4790917894012553,1.2383499283349737,1.9553442001342773,0.0
257,1,257,1,-1,-1.0644637382387048,-1.0626960938426648,1.1737868648073737,0.4790917894012553,1.2383499283349737,3.0393781661987305,0.0
258,1,258,1,-1,-1.550590755145587,-1.046484965004026,1.1737868648073737,0.4790917894012553,1.2383499283349737,2.024343490600586,0.0
259,1,259,1,-1,-1.0352929264839574,-1.06366886797625,1.1737868648073737,0.4790917894012553,1.2383499283349737,2.878370523452759,0.0
260,1,260,1,-1,0.12068368325806733,-1.1022178173315385,1.1737868648073737,0.4790917894012553,1.2383499283349737,1.7933464050292969,1.0
261,1,261,1,1,0.30176753739043083,-1.1082565141902636,1.1737868648073737,0.4790917894012553,1.2383499283349737,2.3393454551696777,0.0
262,1,262,1,1,1.941255228354267,-1.1629293574251178,1.1737868648073737,0.4790917894012553,1.2383499283349737,1.8653454780578613,0.0
263,1,263,1,1,-0.6752142169684165,-1.0756765987729224,1.1737868648073737,0.4790917894012553,1.2383499283349737,1.4393501281738281,0.0
264,1,264,-1,-1,-1.757736716623391,-0.028648365054138994,1.1737868648073737,0.4790917894012553,1.2383499283349737,1.642348289489746,0.0
265,1,265,-1,-1,-0.9669426864295358,-0.05501938222135527,1.1737868648073737,0.4790917894012553,1.2383499283349737,2.4823520183563232,1.0
266,1,266,-1,1,0.6056571740510951,-0.10746168240883955,1.1737868648073737,0.4790917894012553,1.2383499283349737,2.94537353515625,1.0
267,1,267,1,1,1.6876298875860478,-1.154471582125777,1.1737868648073737,0.4790917894012553,1.2383499283349737,1.4503501653671265,0.0
268,1,268,-1,1,1.258816655685854,-0.12924292916268504,1.1737868648073737,0.4790917894012553,1.2383499283349737,7.23709774017334,0.0
269,1,269,1,-1,-0.9637047447169033,-1.066056156066786,1.1737868648073737,0.4790917894012553,1.2383499283349737,2.383347511291504,0.0
270,1,270,1,-1,-3.2152524306823365,-0.9909726318969776,1.1737868648073737,0.4790917894012553,1.2383499283349737,3.5063679218292236,0.0
271,1,271,1,1,1.0934499539645746,-1.1346571568371766,1.1737868648073737,0.4790917894012553,1.2383499283349737,3.9983322620391846,0.0
272,1,272,1,1,2.219689449247439,-1.1722144472699594,1.1737868648073737,0.4790917894012553,1.2383499283349737,2.0833425521850586,0.0
273,1,273,-1,-1,-1.2945511241779897,-0.04409445435629346,1.1737868648073737,0.4790917894012553,1.2383499283349737,1.764346718788147,0.0
274,1,274,1,-1,-1.0510263914460192,-1.0631441959899015,1.1737868648073737,0.4790917894012553,1.2383499283349737,1.7233471870422363,0.0
275,1,275,1,-1,-1.112461629564618,-1.0610954833577382,1.1737868648073737,0.4790917894012553,1.2383499283349737,1.7103474140167236,0.0
276,1,276,-1,-1,-1.4558274148511312,-0.03871629055178953,1.1737868648073737,0.4790917894012553,1.2383499283349737,3.172384262084961,0.0
277,1,277,-1,-1,0.13687071131644002,-0.09182881799090296,1.1737868648073737,0.4790917894012553,1.2383499283349737,2.2793426513671875,0.0
278,1,278,1,1,1.7771092551512055,-1.1574554968343818,1.1737868648073737,0.4790917894012553,1.2383499283349737,1.4443501234054565,0.0
279,1,279,1,1,1.6069384700128655,-1.1517807237267224,1.1737868648073737,0.4790917894012553,1.2383499283349737,1.7403470277786255,0.0
280,1,280,1,1,0.796353046225903,-1.1247497127301658,1.1737868648073737,0.4790917894012553,1.2383499283349737,1.7403470277786255,0.0
281,1,281,1,1,1.1764885605144524,-1.1374262881599455,1.1737868648073737,0.4790917894012553,1.2383499283349737,1.9343445301055908,0.0
282,1,282,1,-1,0.09601250197196376,-1.1013950947003726,1.1737868648073737,0.4790917894012553,1.2383499283349737,2.8583695888519287,0.0
283,1,283,1,1,0.8013217287113421,-1.1249154059525714,1.1737868648073737,0.4790917894012553,1.2383499283349737,1.8283458948135376,0.0
284,1,284,1,-1,0.0529963974004406,-1.09996061443268,1.1737868648073737,0.4790917894012553,1.2383499283349737,1.9333446025848389,0.0
285,1,285,-1,1,0.9522699832612238,-0.11902035886953141,1.1737868648073737,0.4790917894012553,1.2383499283349737,2.155341625213623,0.0
286,1,286,-1,1,2.167132960226992,-0.15953302234212513,1.1737868648073737,0.4790917894012553,1.2383499283349737,3.28438401222229,0.0
287,1,287,-1,1,2.524599048675194,-0.17145362871399455,1.1737868648073737,0.4790917894012553,1.2383499283349737,3.8083460330963135,0.0
288,1,288,-1,-1,-1.6188183964473124,-0.03328094606300949,1.1737868648073737,0.4790917894012553,1.2383499283349737,1.8693454265594482,0.0
289,1,289,1,-1,-0.16946073802940587,-1.092542221382909,1.1737868648073737,0.4790917894012553,1.2383499283349737,1.6263484954833984,0.0
290,1,290,1,1,1.1572998959924128,-1.1367863938483982,1.1737868648073737,0.4790917894012553,1.2383499283349737,1.5663492679595947,0.0
291,1,291,1,1,1.4984439347203102,-1.1481627003938353,1.1737868648073737,0.4790917894012553,1.2383499283349737,2.3543460369110107,0.0
292,1,292,1,-1,-2.0467841274548357,-1.0299381482100014,1.1737868648073737,0.4790917894012553,1.2383499283349737,1.5573493242263794,0.0
293,1,293,-1,1,1.1514814140979825,-0.12566356539603246,1.1737868648073737,0.4790917894012553,1.2383499283349737,1.833345890045166,1.0
294,1,294,-1,1,0.24133865073650485,-0.09531256435048903,1.1737868648073737,0.4790917894012553,1.2383499283349737,1.6443482637405396,0.0
295,1,295,1,-1,-2.3335085515432965,-1.020376600675249,1.1737868648073737,0.4790917894012553,1.2383499283349737,2.025343418121338,0.0
296,1,296,1,1,0.42658408284343086,-1.11241883603036,1.1737868648073737,0.4790917894012553,1.2383499283349737,2.0753426551818848,0.0
297,1,297,1,1,1.3498233453530242,-1.1432065728006038,1.1737868648073737,0.4790917894012553,1.2383499283349737,1.6323484182357788,0.0
298,1,298,-1,-1,-1.2451146466287921,-0.045743038119396735,1.1737868648073737,0.4790917894012553,1.2383499283349737,1.8873450756072998,1.0
299,1,299,-1,1,2.654795598571649,-0.17579536034238089,1.1737868648073737,0.4790917894012553,1.2383499283349737,4.859270095825195,0.0
300,1,300,-1,1,3.0050445771946763,-0.18747529402347304,1.1737868648073737,0.4790917894012553,1.2383499283349737,2.3433456420898438,0.0
301,1,301,-1,-1,-0.0813312804823294,-0.08455232341464074,1.1737868648073737,0.4790917894012553,1.2383499283349737,1.9183447360992432,0.0
302,1,302,-1,-1,-1.8327590271953724,-0.02614655729576104,1.1737868648073737,0.4790917894012553,1.2383499283349737,5.125250816345215,1.0
303,1,303,-1,1,0.5739185306758133,-0.10640327746727905,1.1737868648073737,0.4790917894012553,1.2383499283349737,2.671360969543457,0.0
304,1,304,1,-1,-0.5273881409190109,-1.0806062313199782,1.1737868648073737,0.4790917894012553,1.2383499283349737,2.627358913421631,0.0
305,1,305,-1,1,-0.5118940945416832,-0.07019412276112699,1.1737868648073737,0.4790917894012553,1.2383499283349737,1.9943437576293945,1.0
306,1,306,1,1,1.8902783546769553,-1.1612294052763315,1.1737868648073737,0.4790917894012553,1.2383499283349737,3.132382392883301,0.0
307,1,307,1,1,1.1945218528082249,-1.138027653676759,1.1737868648073737,0.4790917894012553,1.2383499283349737,1.6443482637405396,0.0
308,1,308,1,1,-0.6226696162939664,-1.0774288307240043,1.1737868648073737,0.4790917894012553,1.2383499283349737,1.4013500213623047,0.0
309,1,309,1,1,3.0937270525523437,-1.2013614308857763,1.1737868648073737,0.4790917894012553,1.2383499283349737,1.5923489332199097,0.0
310,1,310,1,1,0.5983081097732523,-1.118145405894677,1.1737868648073737,0.4790917894012553,1.2383499283349737,1.9383444786071777,0.0
311,1,311,1,-1,-0.6298992033683312,-1.0771877419479505,1.1737868648073737,0.4790917894012553,1.2383499283349737,2.013343572616577,0.0
312,1,312,-1,-1,-3.213228711145731,0.01988867861181451,1.1737868648073737,0.4790917894012553,1.2383499283349737,2.1783413887023926,1.0
313,1,313,-1,-1,-1.048483618065035,-0.05230019463787867,1.1737868648073737,0.4790917894012553,1.2383499283349737,4.012331008911133,0.0
314,1,314,1,-1,-3.0385860127193927,-0.9968640182290537,1.1737868648073737,0.4790917894012553,1.2383499283349737,2.5193538665771484,0.0
315,1,315,1,-1,-1.5563276141319893,-1.046293655002888,1.1737868648073737,0.4790917894012553,1.2383499283349737,2.014343500137329,0.0
316,1,316,-1,1,1.633693055541659,-0.14174412618583182,1.1737868648073737,0.4790917894012553,1.2383499283349737,2.0843424797058105,1.0
317,1,317,-1,-1,-1.2587613526800907,-0.0452879543607769,1.1737868648073737,0.4790917894012553,1.2383499283349737,4.5742902755737305,1.0
318,1,318,1,-1,-1.216389119608581,-1.0576297596427737,1.1737868648073737,0.4790917894012553,1.2383499283349737,1.7653467655181885,0.0
319,1,319,-1,1,-0.12127376441594873,-0.08322034076265167,1.1737868648073737,0.4790917894012553,1.2383499283349737,1.5963488817214966,0.0
320,1,320,1,1,0.5320152730228138,-1.1159347044107764,1.1737868648073737,0.4790917894012553,1.2383499283349737,1.5493494272232056,0.0
321,1,321,1,1,0.4529526534296251,-1.113298162379641,1.1737868648073737,0.4790917894012553,1.2383499283349737,2.3413453102111816,0.0
322,1,322,1,-1,-1.5463487470454116,-1.0466264254401978,1.1737868648073737,0.4790917894012553,1.2383499283349737,3.516367197036743,0.0
323,1,323,1,1,1.6619113977158106,-1.15361393435406,1.1737868648073737,0.4790917894012553,1.2383499283349737,2.0983424186706543,0.0
324,1,324,1,1,0.7600036850897505,-1.123537551800848,1.1737868648073737,0.4790917894012553,1.2383499283349737,1.6593480110168457,1.0
325,1,325,1,-1,-1.448387260785549,-1.0498931977440449,1.1737868648073737,0.4790917894012553,1.2383499283349737,1.790346384048462,0.0
326,1,326,-1,-1,-1.8370159925424714,-0.026004598072547035,1.1737868648073737,0.4790917894012553,1.2383499283349737,1.572349190711975,0.0
327,1,327,1,-1,-1.5880852159819323,-1.0452346178432763,1.1737868648073737,0.4790917894012553,1.2383499283349737,1.7793464660644531,0.0
328,1,328,-1,-1,-0.5229871478492721,-0.06982419698015017,1.1737868648073737,0.4790917894012553,1.2383499283349737,3.4683706760406494,1.0
329,1,329,1,-1,-1.6827027425494898,-1.0420793582912777,1.1737868648073737,0.4790917894012553,1.2383499283349737,2.104342460632324,0.0
330,1,330,1,-1,-0.49149422609733207,-1.0818032042456958,1.1737868648073737,0.4790917894012553,1.2383499283349737,2.201341152191162,0.0
331,1,331,-1,-1,-1.9772906124666372,-0.021326787835109995,1.1737868648073737,0.4790917894012553,1.2383499283349737,3.4433724880218506,0.0
332,1,332,1,-1,-1.0432765805818789,-1.0634026329374981,1.1737868648073737,0.4790917894012553,1.2383499283349737,2.1463418006896973,1.0
333,1,333,1,1,2.470630179476879,-1.1805826974743927,1.1737868648073737,0.4790917894012553,1.2383499283349737,3.285383939743042,0.0
334,1,334,-1,1,0.6235250669369811,-0.10805753226612813,1.1737868648073737,0.4790917894012553,1.2383499283349737,2.0483431816101074,1.0
335,1,335,-1,-1,-1.9790700528192806,-0.02126744791814565,1.1737868648073737,0.4790917894012553,1.2383499283349737,2.40034818649292,0.0
336,1,336,1,-1,-0.7819353632736634,-1.0721177135589928,1.1737868648073737,0.4790917894012553,1.2383499283349737,1.741347074508667,0.0
337,1,337,1,-1,-0.14166943717854574,-1.0934689922535208,1.1737868648073737,0.4790917894012553,1.2383499283349737,1.6823477745056152,0.0
338,1,338,1,1,1.1471603807332382,-1.136448266193462,1.1737868648073737,0.4790917894012553,1.2383499283349737,1.4243501424789429,0.0
339,1,339,1,-1,-2.1320786103719938,-1.02709378901229,1.1737868648073737,0.4790917894012553,1.2383499283349737,1.6383483409881592,0.0
340,1,340,1,1,3.5065716961477396,-1.2151287745529746,1.1737868648073737,0.4790917894012553,1.2383499283349737,2.1893413066864014,1.0
341,1,341,1,1,-0.903842074288236,-1.06805242747157,1.1737868648073737,0.4790917894012553,1.2383499283349737,3.0463783740997314,0.0
342,1,342,-1,1,-0.979533682547264,-0.054599503767427685,1.1737868648073737,0.4790917894012553,1.2383499283349737,5.7512054443359375,1.0
343,1,343,-1,-1,-1.6130007782846314,-0.03347494918213112,1.1737868648073737,0.4790917894012553,1.2383499283349737,2.163341522216797,1.0
344,1,344,1,-1,-0.5410582899649061,-1.0801503657957034,1.1737868648073737,0.4790917894012553,1.2383499283349737,3.712352991104126,0.0
345,1,345,-1,-1,-1.1030024901056272,-0.050482125639346544,1.1737868648073737,0.4790917894012553,1.2383499283349737,4.580289840698242,1.0
346,1,346,-1,-1,0.08561504365784378,-0.09011956875515617,1.1737868648073737,0.4790917894012553,1.2383499283349737,2.5393548011779785,1.0
347,1,347,1,-1,0.6757429525168828,-1.1207276656100573,1.1737868648073737,0.4790917894012553,1.2383499283349737,1.5403496026992798,0.0
348,1,348,-1,-1,0.6692150337628546,-0.10958117920013355,1.1737868648073737,0.4790917894012553,1.2383499283349737,2.456350803375244,1.0
349,1,349,1,1,-0.27541289472290553,-1.0890089800629374,1.1737868648073737,0.4790917894012553,1.2383499283349737,1.9663441181182861,0.0
350,1,350,-1,-1,-1.8573447987025902,-0.02532668286862714,1.1737868648073737,0.4790917894012553,1.2383499283349737,2.8663699626922607,1.0
351,1,351,1,-1,0.12457828139090799,-1.1023476925080056,1.1737868648073737,0.4790917894012553,1.2383499283349737,1.7943463325500488,0.0
352,1,352,-1,1,0.2006137551282008,-0.09395449021207349,1.1737868648073737,0.4790917894012553,1.2383499283349737,1.9363445043563843,0.0
353,1,353,-1,-1,-1.0190537470490282,-0.05328160775451768,1.1737868648073737,0.4790917894012553,1.2383499283349737,3.7643492221832275,0.0
354,1,354,1,1,0.8787486395397996,-1.127497401158278,1.1737868648073737,0.4790917894012553,1.2383499283349737,2.1443419456481934,0.0
355,1,355,-1,1,0.8884957277834609,-0.1168936458168061,1.1737868648073737,0.4790917894012553,1.2383499283349737,2.5123534202575684,1.0
356,1,356,-1,1,-0.2181746098409627,-0.07998893819680986,1.1737868648073737,0.4790917894012553,1.2383499283349737,2.7343637943267822,1.0
357,1,357,1,-1,-2.168714128500711,-1.0258720854578696,1.1737868648073737,0.4790917894012553,1.2383499283349737,1.7193472385406494,0.0
358,1,358,-1,-1,-0.6986797814511005,-0.06396528393836674,1.1737868648073737,0.4790917894012553,1.2383499283349737,1.4933501482009888,1.0
359,1,359,1,1,1.6531684257371264,-1.1533223779495612,1.1737868648073737,0.4790917894012553,1.2383499283349737,1.6223485469818115,0.0
360,1,360,1,1,0.31375232205580383,-1.1086561769976302,1.1737868648073737,0.4790917894012553,1.2383499283349737,1.6643480062484741,0.0
361,1,361,-1,1,1.0243038283624322,-0.12142250872556776,1.1737868648073737,0.4790917894012553,1.2383499283349737,3.2513864040374756,1.0
362,1,362,-1,-1,-0.6785256464922164,-0.06463737429147784,1.1737868648073737,0.4790917894012553,1.2383499283349737,1.5273497104644775,0.0
363,1,363,1,1,-0.16606227281126973,-1.092655551758693,1.1737868648073737,0.4790917894012553,1.2383499283349737,1.384350061416626,0.0
364,1,364,1,-1,-0.8421743394132645,-1.0701088932932108,1.1737868648073737,0.4790917894012553,1.2383499283349737,2.44035005569458,1.0
365,1,365,-1,1,0.01958980927355536,-0.08791779114564295,1.1737868648073737,0.4790917894012553,1.2383499283349737,1.875345230102539,1.0
366,1,366,-1,-1,-2.538449144041561,-0.002613544304345683,1.1737868648073737,0.4790917894012553,1.2383499283349737,2.2573413848876953,1.0
367,1,367,1,-1,-2.343190962168892,-1.0200537163247374,1.1737868648073737,0.4790917894012553,1.2383499283349737,1.7223472595214844,0.0
368,1,368,1,-1,-1.7554206048989072,-1.0396543981586,1.1737868648073737,0.4790917894012553,1.2383499283349737,2.1743414402008057,0.0
369,1,369,-1,-1,-1.3537950941724275,-0.042118815074602904,1.1737868648073737,0.4790917894012553,1.2383499283349737,3.7883474826812744,1.0
370,1,370,1,1,0.2418141478717657,-1.1062572175291066,1.1737868648073737,0.4790917894012553,1.2383499283349737,5.275239944458008,0.0
371,1,371,-1,-1,0.4729084490352087,-0.10303484207791058,1.1737868648073737,0.4790917894012553,1.2383499283349737,2.1383419036865234,0.0
372,1,372,-1,-1,-1.305166374954064,-0.043740462103239224,1.1737868648073737,0.4790917894012553,1.2383499283349737,2.7683653831481934,1.0
373,1,373,1,1,1.8289669772588129,-1.1591848230909512,1.1737868648073737,0.4790917894012553,1.2383499283349737,3.5063679218292236,0.0
374,1,374,-1,-1,-0.8711961922123793,-0.058212290040958375,1.1737868648073737,0.4790917894012553,1.2383499283349737,1.856345534324646,1.0
375,1,375,1,-1,-1.5461038779323018,-1.0466345912170487,1.1737868648073737,0.4790917894012553,1.2383499283349737,1.4043500423431396,0.0
376,1,376,1,1,1.0743775107063902,-1.1340211382161722,1.1737868648073737,0.4790917894012553,1.2383499283349737,1.8133461475372314,0.0
377,1,377,1,-1,-1.1254752040546094,-1.0606615129644634,1.1737868648073737,0.4790917894012553,1.2383499283349737,3.4453723430633545,0.0
378,1,378,-1,1,2.0808048280606175,-0.1566541935087624,1.1737868648073737,0.4790917894012553,1.2383499283349737,2.0413432121276855,0.0
379,1,379,1,-1,-0.10695837527762986,-1.0946265199716512,1.1737868648073737,0.4790917894012553,1.2383499283349737,2.2363405227661133,0.0
380,1,380,-1,1,2.3222182225918533,-0.16470473072642264,1.1737868648073737,0.4790917894012553,1.2383499283349737,6.558146953582764,1.0
381,1,381,-1,1,2.4765916028275314,-0.16985269960949365,1.1737868648073737,0.4790917894012553,1.2383499283349737,1.5453494787216187,0.0
382,1,382,1,1,0.24477028485151875,-1.1063557973565525,1.1737868648073737,0.4790917894012553,1.2383499283349737,1.624348521232605,1.0
383,1,383,-1,-1,-0.7997434281326207,-0.06059506228789916,1.1737868648073737,0.4790917894012553,1.2383499283349737,1.9993436336517334,1.0
384,1,384,1,-1,-0.18074177147135673,-1.0921660269312532,1.1737868648073737,0.4790917894012553,1.2383499283349737,2.2853426933288574,1.0
385,1,385,-1,1,-0.1546019248425332,-0.0821089293745994,1.1737868648073737,0.4790917894012553,1.2383499283349737,2.433349609375,1.0
386,1,386,-1,-1,-2.300638842840999,-0.01054392730681164,1.1737868648073737,0.4790917894012553,1.2383499283349737,2.203341007232666,0.0
387,1,387,1,1,1.6138152288193321,-1.1520100465562024,1.1737868648073737,0.4790917894012553,1.2383499283349737,1.8593454360961914,0.0
388,1,388,-1,1,0.7280581687913439,-0.1115434516310834,1.1737868648073737,0.4790917894012553,1.2383499283349737,1.7093473672866821,0.0
389,1,389,-1,-1,-2.129716988297295,-0.016243746714046575,1.1737868648073737,0.4790917894012553,1.2383499283349737,1.599348783493042,1.0
390,1,390,-1,-1,-1.6978897574020595,-0.030644112529173095,1.1737868648073737,0.4790917894012553,1.2383499283349737,2.689361572265625,1.0
391,1,391,1,1,1.6113166910256216,-1.1519267265252777,1.1737868648073737,0.4790917894012553,1.2383499283349737,1.5893489122390747,0.0
392,1,392,1,1,2.86731609799892,-1.193811187786558,1.1737868648073737,0.4790917894012553,1.2383499283349737,2.0983424186706543,0.0
393,1,393,-1,-1,-0.21205600818277415,-0.08019297836808921,1.1737868648073737,0.4790917894012553,1.2383499283349737,1.7233471870422363,0.0
394,1,394,1,1,0.8097022318560246,-1.1251948749215572,1.1737868648073737,0.4790917894012553,1.2383499283349737,1.6183485984802246,0.0
395,1,395,1,-1,-1.5734284705278576,-1.0457233839077977,1.1737868648073737,0.4790917894012553,1.2383499283349737,2.2993435859680176,0.0
396,1,396,-1,-1,-0.9983823263027753,-0.053970948304087274,1.1737868648073737,0.4790917894012553,1.2383499283349737,3.517367124557495,0.0
397,1,397,1,1,0.09496573018148713,-1.101360187460557,1.1737868648073737,0.4790917894012553,1.2383499283349737,1.5793490409851074,0.0
398,1,398,-1,1,1.5016902008971074,-0.13734215877960385,1.1737868648073737,0.4790917894012553,1.2383499283349737,1.7743465900421143,0.0
399,1,399,1,-1,-0.5579294281360634,-1.0795877552329594,1.1737868648073737,0.4790917894012553,1.2383499283349737,1.7143473625183105,0.0
400,1,400,1,-1,-0.2982652268831646,-1.0882469115334603,1.1737868648073737,0.4790917894012553,1.2383499283349737,1.7543468475341797,0.0
401,1,401,-1,1,1.08537015715793,-0.12345891914790007,1.1737868648073737,0.4790917894012553,1.2383499283349737,3.1173815727233887,0.0
402,1,402,-1,1,-0.6710424994763047,-0.06488691866192918,1.1737868648073737,0.4790917894012553,1.2383499283349737,2.2913432121276855,1.0
403,1,403,1,1,-1.1318046403328363,-1.060450441982161,1.1737868648073737,0.4790917894012553,1.2383499283349737,1.503350019454956,0.0
404,1,404,1,1,0.7992636779452893,-1.1248467750701794,1.1737868648073737,0.4790917894012553,1.2383499283349737,2.2993435859680176,0.0
405,1,405,1,-1,-1.1333991190660797,-1.0603972700758977,1.1737868648073737,0.4790917894012553,1.2383499283349737,2.0013437271118164,0.0
406,1,406,1,1,1.465146813045614,-1.1470523240710815,1.1737868648073737,0.4790917894012553,1.2383499283349737,2.8263680934906006,0.0
407,1,407,-1,1,2.427166196938132,-0.16820448505875094,1.1737868648073737,0.4790917894012553,1.2383499283349737,2.105342388153076,0.0
408,1,408,-1,-1,-1.4581828846180263,-0.03863774148428529,1.1737868648073737,0.4790917894012553,1.2383499283349737,2.072342872619629,1.0
409,1,409,1,1,2.153079348757216,-1.1699931658281824,1.1737868648073737,0.4790917894012553,1.2383499283349737,2.697361946105957,0.0
410,1,410,-1,1,-0.23378704979807607,-0.07946830209384098,1.1737868648073737,0.4790917894012553,1.2383499283349737,3.3183815479278564,0.0
411,1,411,-1,-1,-1.2319318421945649,-0.04618265191107122,1.1737868648073737,0.4790917894012553,1.2383499283349737,2.5693559646606445,0.0
412,1,412,-1,-1,-0.9470594181345205,-0.055682439843856145,1.1737868648073737,0.4790917894012553,1.2383499283349737,1.5313496589660645,0.0
413,1,413,-1,-1,-0.6586286852214088,-0.06530088854071828,1.1737868648073737,0.4790917894012553,1.2383499283349737,3.730351686477661,1.0
414,1,414,1,1,1.4867089721098385,-1.1477713685316289,1.1737868648073737,0.4790917894012553,1.2383499283349737,2.724363327026367,0.0
415,1,415,1,-1,-1.224333778412312,-1.057364825000248,1.1737868648073737,0.4790917894012553,1.2383499283349737,2.7513647079467773,0.0
416,1,416,1,1,-0.9086544477053302,-1.067891946768439,1.1737868648073737,0.4790917894012553,1.2383499283349737,2.3393454551696777,1.0
417,1,417,-1,-1,-1.3527082932073993,-0.04215505718798745,1.1737868648073737,0.4790917894012553,1.2383499283349737,1.9763439893722534,1.0
418,1,418,-1,-1,-0.5802491331949293,-0.0679146519647319,1.1737868648073737,0.4790917894012553,1.2383499283349737,3.9553353786468506,0.0
419,1,419,1,-1,-1.9729089144858878,-1.032401703111849,1.1737868648073737,0.4790917894012553,1.2383499283349737,1.977344036102295,1.0
420,1,420,1,1,0.6888443572470994,-1.121164564923739,1.1737868648073737,0.4790917894012553,1.2383499283349737,1.4173500537872314,0.0
421,1,421,1,1,2.27794488255166,-1.1741571213078155,1.1737868648073737,0.4790917894012553,1.2383499283349737,1.8223459720611572,0.0
422,1,422,1,1,2.137777549533106,-1.1694828888222604,1.1737868648073737,0.4790917894012553,1.2383499283349737,2.0453431606292725,0.0
423,1,423,1,1,3.155138502810719,-1.2034093502518726,1.1737868648073737,0.4790917894012553,1.2383499283349737,1.4303500652313232,0.0
424,1,424,-1,-1,0.028213115208635564,-0.08820535698474825,1.1737868648073737,0.4790917894012553,1.2383499283349737,2.1363420486450195,1.0
425,1,425,-1,-1,-0.5224530693652285,-0.06984200717134231,1.1737868648073737,0.4790917894012553,1.2383499283349737,1.7653467655181885,0.0
426,1,426,1,1,-0.09824326004025541,-1.0949171474230024,1.1737868648073737,0.4790917894012553,1.2383499283349737,1.7013474702835083,0.0
427,1,427,1,-1,0.6868524803724116,-1.1210981407762977,1.1737868648073737,0.4790917894012553,1.2383499283349737,3.332380533218384,0.0
428,1,428,-1,1,2.875723327055228,-0.18316275146839425,1.1737868648073737,0.4790917894012553,1.2383499283349737,1.577349066734314,0.0
429,1,429,1,1,1.641851678233122,-1.1529449925226227,1.1737868648073737,0.4790917894012553,1.2383499283349737,1.5883489847183228,0.0
430,1,430,1,-1,-0.44034473065184176,-1.0835089129017876,1.1737868648073737,0.4790917894012553,1.2383499283349737,2.1263420581817627,0.0
431,1,431,-1,-1,-1.782213242667233,-0.02783213369192481,1.1737868648073737,0.4790917894012553,1.2383499283349737,1.65034818649292,1.0
432,1,432,-1,1,0.6334092322717246,-0.10838714463518236,1.1737868648073737,0.4790917894012553,1.2383499283349737,1.6013487577438354,0.0
433,1,433,1,-1,-1.3132145899253818,-1.0544008706496155,1.1737868648073737,0.4790917894012553,1.2383499283349737,1.8073461055755615,0.0
434,1,434,1,1,3.398915096445013,-1.2115386942912043,1.1737868648073737,0.4790917894012553,1.2383499283349737,1.8383457660675049,0.0
435,1,435,1,1,1.2180969883079327,-1.138813825902705,1.1737868648073737,0.4790917894012553,1.2383499283349737,1.745347023010254,0.0
436,1,436,1,1,0.7239538662599474,-1.1223353798636082,1.1737868648073737,0.4790917894012553,1.2383499283349737,2.437349796295166,0.0
437,1,437,1,-1,0.1743036034601575,-1.1040059085185794,1.1737868648073737,0.4790917894012553,1.2383499283349737,3.0063765048980713,0.0
438,1,438,-1,-1,-1.6623096648552753,-0.03183062026132223,1.1737868648073737,0.4790917894012553,1.2383499283349737,1.5883489847183228,1.0
439,1,439,1,-1,0.34476606341642824,-1.1096904082571153,1.1737868648073737,0.4790917894012553,1.2383499283349737,2.071342706680298,0.0
440,1,440,-1,-1,-2.054505490659615,-0.018751863391266665,1.1737868648073737,0.4790917894012553,1.2383499283349737,4.591289520263672,0.0
441,1,441,1,-1,-1.272524859443578,-1.0557577721183862,1.1737868648073737,0.4790917894012553,1.2383499283349737,1.6583480834960938,0.0
442,1,442,-1,1,1.7915830763152418,-0.14700936629814224,1.1737868648073737,0.4790917894012553,1.2383499283349737,2.6253585815429688,1.0
443,1,443,1,-1,-1.9418084765295303,-1.0334388254875124,1.1737868648073737,0.4790917894012553,1.2383499283349737,2.8033671379089355,0.0
444,1,444,-1,1,1.6093717868181447,-0.14093307226970775,1.1737868648073737,0.4790917894012553,1.2383499283349737,2.907371997833252,1.0
445,1,445,1,-1,-0.44140395219743467,-1.0834735904935546,1.1737868648073737,0.4790917894012553,1.2383499283349737,1.4723502397537231,0.0
446,1,446,1,1,2.295201721691801,-1.174732594040083,1.1737868648073737,0.4790917894012553,1.2383499283349737,2.1293420791625977,1.0
447,1,447,-1,1,0.8622749993820022,-0.11601924963725696,1.1737868648073737,0.4790917894012553,1.2383499283349737,1.5853489637374878,1.0
448,1,448,1,1,-0.2302267128205706,-1.090515827020767,1.1737868648073737,0.4790917894012553,1.2383499283349737,1.6713478565216064,0.0
449,1,449,-1,-1,-3.174791137335352,0.01860688097536653,1.1737868648073737,0.4790917894012553,1.2383499283349737,4.376304626464844,1.0
450,1,450,1,-1,-0.7753349238913173,-1.0723378218218491,1.1737868648073737,0.4790917894012553,1.2383499283349737,2.0473430156707764,0.0
451,1,451,1,1,1.8599950847946172,-1.1602195334267036,1.1737868648073737,0.4790917894012553,1.2383499283349737,1.735347032546997,1.0
452,1,452,-1,-1,-1.008919189570991,-0.0536195700797643,1.1737868648073737,0.4790917894012553,1.2383499283349737,2.4713516235351562,0.0
453,1,453,1,-1,-1.8299226514546967,-1.037169939913216,1.1737868648073737,0.4790917894012553,1.2383499283349737,2.5973572731018066,0.0
454,1,454,-1,-1,-0.07135620403261633,-0.0848849674436241,1.1737868648073737,0.4790917894012553,1.2383499283349737,1.5863490104675293,0.0
455,1,455,-1,-1,1.662376885413961,-0.1427006606829354,1.1737868648073737,0.4790917894012553,1.2383499283349737,1.8223459720611572,1.0
456,1,456,1,-1,-1.246149479640511,-1.0566373255381407,1.1737868648073737,0.4790917894012553,1.2383499283349737,1.5703492164611816,0.0
457,1,457,1,-1,-1.6934207337348481,-1.041721939900704,1.1737868648073737,0.4790917894012553,1.2383499283349737,2.2223408222198486,0.0
458,1,458,1,-1,-1.6220157557840191,-1.04410311859891,1.1737868648073737,0.4790917894012553,1.2383499283349737,1.5883489847183228,1.0
459,1,459,1,1,1.2805910222790415,-1.140897846747294,1.1737868648073737,0.4790917894012553,1.2383499283349737,2.682361364364624,0.0
460,1,460,-1,1,1.5864038073481557,-0.14016714718963239,1.1737868648073737,0.4790917894012553,1.2383499283349737,1.7033474445343018,1.0
461,1,461,1,1,2.575428370559314,-1.184077456906821,1.1737868648073737,0.4790917894012553,1.2383499283349737,2.202341079711914,0.0
462,1,462,-1,-1,-1.1562323189990813,-0.04870704302875431,1.1737868648073737,0.4790917894012553,1.2383499283349737,2.3203444480895996,0.0
463,1,463,1,-1,-0.8360821912260731,-1.0703120513069229,1.1737868648073737,0.4790917894012553,1.2383499283349737,1.6703479290008545,0.0
464,1,464,1,1,0.5756142155160959,-1.1173886208758272,1.1737868648073737,0.4790917894012553,1.2383499283349737,2.0333433151245117,0.0
465,1,465,1,1,1.597489024146288,-1.151465608172414,1.1737868648073737,0.4790917894012553,1.2383499283349737,1.421350121498108,0.0
466,1,466,-1,1,-0.20717663766948213,-0.08035569325800775,1.1737868648073737,0.4790917894012553,1.2383499283349737,3.0623791217803955,0.0
467,1,467,1,1,1.8514922956095954,-1.1599359865219394,1.1737868648073737,0.4790917894012553,1.2383499283349737,1.6353483200073242,0.0
468,1,468,1,1,1.604871318296977,-1.151711789350253,1.1737868648073737,0.4790917894012553,1.2383499283349737,2.3003435134887695,0.0
469,1,469,-1,-1,-1.5611914183172595,-0.03520266268141882,1.1737868648073737,0.4790917894012553,1.2383499283349737,2.374346971511841,1.0
470,1,470,1,1,0.7288520754704313,-1.122498722977297,1.1737868648073737,0.4790917894012553,1.2383499283349737,1.8233458995819092,0.0
471,1,471,-1,1,1.7787145896881693,-0.14658023422480648,1.1737868648073737,0.4790917894012553,1.2383499283349737,1.8983449935913086,1.0
472,1,472,1,-1,-1.852528992675823,-1.0364160745707018,1.1737868648073737,0.4790917894012553,1.2383499283349737,1.6553480625152588,1.0
473,1,473,1,1,0.7325594909052386,-1.1226223560756061,1.1737868648073737,0.4790917894012553,1.2383499283349737,1.8093461990356445,0.0
474,1,474,-1,1,-0.1736647550491892,-0.08147323132499194,1.1737868648073737,0.4790917894012553,1.2383499283349737,2.0343432426452637,0.0
475,1,475,-1,-1,-2.86880294514875,0.008402934611304744,1.1737868648073737,0.4790917894012553,1.2383499283349737,3.395375967025757,1.0
476,1,476,1,1,-0.18979466235624143,-1.091864135500839,1.1737868648073737,0.4790917894012553,1.2383499283349737,3.3153817653656006,0.0
477,1,477,-1,-1,0.016032091515189695,-0.08779915009310621,1.1737868648073737,0.4790917894012553,1.2383499283349737,1.5693491697311401,1.0
478,1,478,1,-1,-0.7373118810566242,-1.073605795879642,1.1737868648073737,0.4790917894012553,1.2383499283349737,3.287383794784546,0.0
479,1,479,1,-1,-2.611439844884485,-1.011108282215371,1.1737868648073737,0.4790917894012553,1.2383499283349737,1.5573493242263794,0.0
480,1,480,-1,1,1.370705694892188,-0.13297415077169272,1.1737868648073737,0.4790917894012553,1.2383499283349737,1.694347620010376,1.0
481,1,481,-1,-1,0.12759960324829578,-0.091519649559315,1.1737868648073737,0.4790917894012553,1.2383499283349737,1.6663479804992676,0.0
482,1,482,-1,-1,-1.4764954651269169,-0.038027062399040294,1.1737868648073737,0.4790917894012553,1.2383499283349737,2.5323543548583984,1.0
483,1,483,-1,1,2.5828847288004226,-0.17339731140822087,1.1737868648073737,0.4790917894012553,1.2383499283349737,1.6783478260040283,0.0
484,1,484,-1,-1,-1.0305502117571255,-0.0528982292051055,1.1737868648073737,0.4790917894012553,1.2383499283349737,3.435373067855835,0.0
485,1,485,-1,-1,-0.09058845242957658,-0.08424361971807783,1.1737868648073737,0.4790917894012553,1.2383499283349737,1.8393456935882568,1.0
486,1,486,-1,-1,0.13074831717874824,-0.09162465134984984,1.1737868648073737,0.4790917894012553,1.2383499283349737,2.105342388153076,0.0
487,1,487,1,-1,-1.349993918600112,-1.0531743713706032,1.1737868648073737,0.4790917894012553,1.2383499283349737,2.2553415298461914,0.0
488,1,488,-1,-1,-0.9819001475373337,-0.054520588036534465,1.1737868648073737,0.4790917894012553,1.2383499283349737,4.490296363830566,0.0
489,1,489,1,1,1.7239597292362334,-1.1556830921287096,1.1737868648073737,0.4790917894012553,1.2383499283349737,1.4533501863479614,0.0
490,1,490,-1,1,1.4182088496218916,-0.13455826301969093,1.1737868648073737,0.4790917894012553,1.2383499283349737,2.1773414611816406,1.0
491,1,491,-1,1,1.998057969104768,-0.15389479124377184,1.1737868648073737,0.4790917894012553,1.2383499283349737,1.525349736213684,0.0
492,1,492,-1,1,0.724265831338032,-0.1114169865943397,1.1737868648073737,0.4790917894012553,1.2383499283349737,3.394376039505005,0.0
493,1,493,1,-1,-1.1542898689848728,-1.0597006154430733,1.1737868648073737,0.4790917894012553,1.2383499283349737,3.5363657474517822,1.0
494,1,494,-1,-1,-0.595874005410842,-0.06739360127680448,1.1737868648073737,0.4790917894012553,1.2383499283349737,6.739133834838867,1.0
495,1,495,-1,-1,-1.4314971399214365,-0.03952764480252507,1.1737868648073737,0.4790917894012553,1.2383499283349737,2.3113441467285156,0.0
496,1,496,-1,1,0.9658506498579527,-0.11947324037633386,1.1737868648073737,0.4790917894012553,1.2383499283349737,5.605216026306152,1.0
497,1,497,-1,-1,-2.643278479317227,0.0008822537095882071,1.1737868648073737,0.4790917894012553,1.2383499283349737,2.5103533267974854,0.0
498,1,498,1,1,0.4287571499634889,-1.1124913024225438,1.1737868648073737,0.4790917894012553,1.2383499283349737,1.9123448133468628,0.0
499,1,499,-1,1,0.3048321843684987,-0.09742991602676064,1.1737868648073737,0.4790917894012553,1.2383499283349737,2.8323683738708496,1.0
500,2,0,-1,1,1.5944295665273962,-0.7019051534208516,1.147156035496282,0.2994827941596257,1.3575522218664238,1.4655522108078003,0.0
501,2,1,-1,-1,-1.0352227282950772,0.35809280456263876,1.147156035496282,0.2994827941596257,1.3575522218664238,2.1675453186035156,1.0
502,2,2,-1,1,1.007530569891185,-0.4653294893295114,1.147156035496282,0.2994827941596257,1.3575522218664238,1.6765515804290771,0.0
503,2,3,-1,1,1.796181748093156,-0.7832303160286544,1.147156035496282,0.2994827941596257,1.3575522218664238,2.3005435466766357,0.0
504,2,4,-1,-1,-2.042367945460059,0.7640673418387889,1.147156035496282,0.2994827941596257,1.3575522218664238,1.5035523176193237,0.0
505,2,5,-1,1,-0.5314213042630349,0.15501330171179079,1.147156035496282,0.2994827941596257,1.3575522218664238,2.43454647064209,1.0
506,2,6,-1,1,2.257065239002057,-0.9690098429241365,1.147156035496282,0.2994827941596257,1.3575522218664238,2.103546142578125,0.0
507,2,7,1,-1,-0.4826894266573002,-0.44112667966722985,1.147156035496282,0.2994827941596257,1.3575522218664238,1.5195523500442505,0.0
508,2,8,-1,1,0.05692894669544735,-0.0821473547837356,1.147156035496282,0.2994827941596257,1.3575522218664238,2.3115434646606445,0.0
509,2,9,1,-1,-0.1017779719747568,-0.5946699313476862,1.147156035496282,0.2994827941596257,1.3575522218664238,3.641569137573242,0.0
510,2,10,-1,1,2.3728758790033666,-1.0156924564985053,1.147156035496282,0.2994827941596257,1.3575522218664238,1.6915514469146729,0.0
511,2,11,1,-1,-0.3263460199710889,-0.5041478221041443,1.147156035496282,0.2994827941596257,1.3575522218664238,1.6525518894195557,0.0
512,2,12,-1,-1,-1.2843196836636717,0.4585023775508577,1.147156035496282,0.2994827941596257,1.3575522218664238,1.7465506792068481,1.0
513,2,13,-1,-1,-0.6843673102724224,0.21666497116287542,1.147156035496282,0.2994827941596257,1.3575522218664238,2.6255555152893066,0.0
514,2,14,1,-1,-1.5263733183296149,-0.020423609481442395,1.147156035496282,0.2994827941596257,1.3575522218664238,2.2675440311431885,0.0
515,2,15,-1,-1,-1.5277091141256913,0.5566112795499802,1.147156035496282,0.2994827941596257,1.3575522218664238,1.7895501852035522,0.0
516,2,16,1,-1,-0.19001958276792963,-0.5591002374249954,1.147156035496282,0.2994827941596257,1.3575522218664238,1.9745478630065918,0.0
517,2,17,1,1,-1.1267398477422468,-0.1815135998191434,1.147156035496282,0.2994827941596257,1.3575522218664238,1.6925513744354248,0.0
518,2,18,-1,-1,0.2683058991788796,-0.16735220807873658,1.147156035496282,0.2994827941596257,1.3575522218664238,1.512552261352539,0.0
519,2,19,1,1,2.2830102332754048,-1.5559645605902719,1.147156035496282,0.2994827941596257,1.3575522218664238,1.5685523748397827,0.0
520,2,20,-1,-1,-1.6977320467617996,0.6251465614804022,1.147156035496282,0.2994827941596257,1.3575522218664238,1.7045512199401855,0.0
521,2,21,1,-1,-1.4498637964832295,-0.05126416474539863,1.147156035496282,0.2994827941596257,1.3575522218664238,1.5725524425506592,0.0
522,2,22,-1,1,0.6251008075488899,-0.31117421642400706,1.147156035496282,0.2994827941596257,1.3575522218664238,1.5005522966384888,0.0
523,2,23,-1,-1,-1.7130725057457616,0.6313302136801797,1.147156035496282,0.2994827941596257,1.3575522218664238,2.5915536880493164,1.0
524,2,24,-1,1,1.5205766887353716,-0.6721354763403935,1.147156035496282,0.2994827941596257,1.3575522218664238,1.6025525331497192,0.0
525,2,25,-1,-1,-1.8098511363285716,0.670341131966296,1.147156035496282,0.2994827941596257,1.3575522218664238,3.3175878524780273,1.0
526,2,26,1,1,0.2479798589508111,-0.735655333600217,1.147156035496282,0.2994827941596257,1.3575522218664238,1.6075525283813477,0.0
527,2,27,-1,1,-0.35761141798609697,0.08495152020035535,1.147156035496282,0.2994827941596257,1.3575522218664238,4.937475204467773,0.0
528,2,28,1,1,1.9190794446072896,-1.4092661192811078,1.147156035496282,0.2994827941596257,1.3575522218664238,1.5585523843765259,0.0
529,2,29,-1,-1,-1.5254926917453426,0.5557178522319184,1.147156035496282,0.2994827941596257,1.3575522218664238,2.6165549755096436,1.0
530,2,30,-1,-1,-0.90459093855588,0.3054358694066448,1.147156035496282,0.2994827941596257,1.3575522218664238,3.365589141845703,0.0
531,2,31,1,1,1.3453603360477424,-1.1780031934841884,1.147156035496282,0.2994827941596257,1.3575522218664238,1.8285496234893799,0.0
532,2,32,1,1,2.1787292738818245,-1.5139294960186582,1.147156035496282,0.2994827941596257,1.3575522218664238,1.4315521717071533,0.0
533,2,33,-1,-1,-2.696259733851204,1.0276474211524984,1.147156035496282,0.2994827941596257,1.3575522218664238,2.78056263923645,1.0
534,2,34,-1,1,1.769881765826646,-0.7726289420171961,1.147156035496282,0.2994827941596257,1.3575522218664238,2.8225646018981934,0.0
535,2,35,-1,1,2.301125332740827,-0.9867702173598032,1.147156035496282,0.2994827941596257,1.3575522218664238,1.490552306175232,0.0
536,2,36,1,1,2.689042894575829,-1.7196340284893,1.147156035496282,0.2994827941596257,1.3575522218664238,1.509552240371704,0.0
537,2,37,-1,-1,-1.282191824858129,0.45764464970859003,1.147156035496282,0.2994827941596257,1.3575522218664238,1.7345508337020874,0.0
538,2,38,1,-1,-0.9077818289527423,-0.26977433803839684,1.147156035496282,0.2994827941596257,1.3575522218664238,1.7915501594543457,0.0
539,2,39,-1,-1,-1.1902077568377392,0.42056639245739325,1.147156035496282,0.2994827941596257,1.3575522218664238,2.5375514030456543,1.0
540,2,40,1,1,1.937669846558752,-1.4167598050985983,1.147156035496282,0.2994827941596257,1.3575522218664238,1.5035523176193237,0.0
541,2,41,1,-1,-1.2293381997074389,-0.14015678477948929,1.147156035496282,0.2994827941596257,1.3575522218664238,1.8555493354797363,0.0
542,2,42,-1,1,0.5230726183175842,-0.2700472307556458,1.147156035496282,0.2994827941596257,1.3575522218664238,5.059466361999512,0.0
543,2,43,1,1,0.6881600415560901,-0.9130894740852786,1.147156035496282,0.2994827941596257,1.3575522218664238,1.6935514211654663,0.0
544,2,44,-1,-1,-0.8722580494595914,0.29240266479428884,1.147156035496282,0.2994827941596257,1.3575522218664238,2.1135458946228027,1.0
545,2,45,-1,-1,-2.895282665364358,1.1078724385098115,1.147156035496282,0.2994827941596257,1.3575522218664238,2.6325557231903076,1.0
546,2,46,-1,1,1.2837474795661683,-0.5766709624179749,1.147156035496282,0.2994827941596257,1.3575522218664238,2.3885443210601807,0.0
547,2,47,-1,-1,-0.2357222322222422,0.03581867922957645,1.147156035496282,0.2994827941596257,1.3575522218664238,2.930569648742676,0.0
548,2,48,-1,-1,-2.6569358021554694,1.0117961668328945,1.147156035496282,0.2994827941596257,1.3575522218664238,2.10054612159729,0.0
549,2,49,-1,1,3.5487946131587225,-1.4896986433291322,1.147156035496282,0.2994827941596257,1.3575522218664238,2.200544834136963,0.0
550,2,50,-1,-1,-1.931810282549649,0.7195021736014522,1.147156035496282,0.2994827941596257,1.3575522218664238,1.6345521211624146,0.0
551,2,51,-1,1,-0.07046654276561637,-0.03079495395457913,1.147156035496282,0.2994827941596257,1.3575522218664238,2.1205458641052246,0.0
552,2,52,1,-1,0.3253992623007995,-0.7668626569489595,1.147156035496282,0.2994827941596257,1.3575522218664238,2.1665453910827637,0.0
553,2,53,1,1,1.6297300266495816,-1.2926310064250228,1.147156035496282,0.2994827941596257,1.3575522218664238,2.2195446491241455,0.0
554,2,54,1,1,0.5538355853139524,-0.8589440459599527,1.147156035496282,0.2994827941596257,1.3575522218664238,2.6625571250915527,0.0
555,2,55,1,1,1.1023934557636246,-1.080064619070429,1.147156035496282,0.2994827941596257,1.3575522218664238,2.066546678543091,0.0
556,2,56,-1,-1,-1.0352001284007175,0.3580836946731225,1.147156035496282,0.2994827941596257,1.3575522218664238,2.0935463905334473,1.0
557,2,57,1,1,0.626143792126635,-0.8880910749104345,1.147156035496282,0.2994827941596257,1.3575522218664238,1.7745503187179565,0.0
558,2,58,-1,-1,-2.1582701505268775,0.8107868647728675,1.147156035496282,0.2994827941596257,1.3575522218664238,3.1575803756713867,1.0
559,2,59,1,1,-0.8980083091564914,-0.27371398855673146,1.147156035496282,0.2994827941596257,1.3575522218664238,1.6905514001846313,0.0
560,2,60,-1,1,1.9336579597431753,-0.8386461989220864,1.147156035496282,0.2994827941596257,1.3575522218664238,1.7085511684417725,0.0
561,2,61,1,1,-0.14725584571104378,-0.5763380578186995,1.147156035496282,0.2994827941596257,1.3575522218664238,4.132533550262451,0.0
562,2,62,1,1,0.40084845489326604,-0.7972757994914099,1.147156035496282,0.2994827941596257,1.3575522218664238,3.6595678329467773,0.0
563,2,63,-1,1,1.5400259477292524,-0.6799753625711309,1.147156035496282,0.2994827941596257,1.3575522218664238,2.1245458126068115,0.0
564,2,64,1,-1,0.7191793879833566,-0.9255931970815179,1.147156035496282,0.2994827941596257,1.3575522218664238,1.6095525026321411,0.0
565,2,65,-1,-1,-2.0110309382184752,0.7514355715660443,1.147156035496282,0.2994827941596257,1.3575522218664238,1.709551215171814,1.0
566,2,66,-1,-1,-0.3817183106237956,0.09466887219384879,1.147156035496282,0.2994827941596257,1.3575522218664238,2.24554443359375,0.0
567,2,67,-1,1,1.808563365471286,-0.7882212759221703,1.147156035496282,0.2994827941596257,1.3575522218664238,3.6945652961730957,0.0
568,2,68,1,1,2.648946460667809,-1.7034713828997654,1.147156035496282,0.2994827941596257,1.3575522218664238,1.4625521898269653,0.0
569,2,69,-1,1,-0.27819980327002436,0.05294114772451769,1.147156035496282,0.2994827941596257,1.3575522218664238,1.7705503702163696,0.0
570,2,70,-1,-1,-1.6236845199483656,0.5952984224809963,1.147156035496282,0.2994827941596257,1.3575522218664238,1.4825522899627686,0.0
571,2,71,-1,1,1.7097325382166806,-0.7483831287717033,1.147156035496282,0.2994827941596257,1.3575522218664238,1.7705503702163696,0.0
572,2,72,1,1,1.8053085549975414,-1.363405717545965,1.147156035496282,0.2994827941596257,1.3575522218664238,2.0865464210510254,0.0
573,2,73,1,-1,-1.3314360176336646,-0.09900173217825725,1.147156035496282,0.2994827941596257,1.3575522218664238,1.4335521459579468,0.0
574,2,74,1,-1,-1.8190187447381754,0.09754010572799499,1.147156035496282,0.2994827941596257,1.3575522218664238,2.0405468940734863,1.0
575,2,75,-1,1,-0.13487325269262107,-0.00483297368156782,1.147156035496282,0.2994827941596257,1.3575522218664238,3.882551670074463,0.0
576,2,76,1,1,-0.08155043308809562,-0.6028235377986638,1.147156035496282,0.2994827941596257,1.3575522218664238,1.7305508852005005,0.0
577,2,77,1,1,1.498515118877401,-1.2397390196899885,1.147156035496282,0.2994827941596257,1.3575522218664238,1.7675504684448242,0.0
578,2,78,-1,1,0.985555677510335,-0.45647153457386935,1.147156035496282,0.2994827941596257,1.3575522218664238,1.6445519924163818,0.0
579,2,79,-1,1,1.123295888704758,-0.5119938341895909,1.147156035496282,0.2994827941596257,1.3575522218664238,1.7445507049560547,0.0
580,2,80,-1,1,1.504382430933096,-0.6656076626688796,1.147156035496282,0.2994827941596257,1.3575522218664238,1.8575493097305298,0.0
581,2,81,-1,-1,-2.124879711451142,0.7973273677488166,1.147156035496282,0.2994827941596257,1.3575522218664238,2.094546318054199,1.0
582,2,82,-1,1,1.6724405638605453,-0.733350944956183,1.147156035496282,0.2994827941596257,1.3575522218664238,1.5955524444580078,0.0
583,2,83,1,1,-0.19056619260856378,-0.5588799020916789,1.147156035496282,0.2994827941596257,1.3575522218664238,1.4795522689819336,0.0
584,2,84,-1,1,1.8546694123845586,-0.8068063625037631,1.147156035496282,0.2994827941596257,1.3575522218664238,2.5675525665283203,0.0
585,2,85,-1,1,-1.3666790591726912,0.4917009757199932,1.147156035496282,0.2994827941596257,1.3575522218664238,1.5605523586273193,0.0
586,2,86,1,-1,-1.5173313411073015,-0.02406837932826067,1.147156035496282,0.2994827941596257,1.3575522218664238,1.545552372932434,0.0
587,2,87,-1,-1,-2.2075663946914927,0.8306579018121105,1.147156035496282,0.2994827941596257,1.3575522218664238,4.482508182525635,1.0
588,2,88,1,1,-0.631024560789609,-0.38133362657536873,1.147156035496282,0.2994827941596257,1.3575522218664238,3.7415618896484375,0.0
589,2,89,1,-1,-0.9193396651979565,-0.2651154396575135,1.147156035496282,0.2994827941596257,1.3575522218664238,1.6165523529052734,0.0
590,2,90,-1,1,-0.9984092073672708,0.34325348261635397,1.147156035496282,0.2994827941596257,1.3575522218664238,2.5255508422851562,0.0
591,2,91,1,1,-0.6770245816851759,-0.3627912784814773,1.147156035496282,0.2994827941596257,1.3575522218664238,2.0235471725463867,0.0
592,2,92,1,-1,-2.4074184890487733,0.3347207127136602,1.147156035496282,0.2994827941596257,1.3575522218664238,1.8845489025115967,0.0
593,2,93,-1,1,1.2962060236634314,-0.5816929310366199,1.147156035496282,0.2994827941596257,1.3575522218664238,1.514552354812622,0.0
594,2,94,1,-1,-2.8400805522327905,0.5091243418074995,1.147156035496282,0.2994827941596257,1.3575522218664238,2.3845441341400146,0.0
595,2,95,-1,1,1.0899519467126724,-0.498553079876817,1.147156035496282,0.2994827941596257,1.3575522218664238,1.5025522708892822,0.0
596,2,96,-1,1,0.600137833080137,-0.30111178268926175,1.147156035496282,0.2994827941596257,1.3575522218664238,3.370588779449463,0.0
597,2,97,-1,1,-0.2887310252455271,0.05718622370322511,1.147156035496282,0.2994827941596257,1.3575522218664238,2.468548059463501,0.0
598,2,98,-1,1,0.3462804941286436,-0.19878332601933846,1.147156035496282,0.2994827941596257,1.3575522218664238,1.5725524425506592,0.0
599,2,99,-1,1,0.2984597277299551,-0.17950704571733095,1.147156035496282,0.2994827941596257,1.3575522218664238,1.8035500049591064,0.0
600,2,100,1,-1,-1.0196492828975483,-0.22468120044762968,1.147156035496282,0.2994827941596257,1.3575522218664238,1.610552430152893,0.0
601,2,101,1,-1,0.11147295991783812,-0.6806301751370604,1.147156035496282,0.2994827941596257,1.3575522218664238,1.8815490007400513,0.0
602,2,102,1,1,1.3743403109116963,-1.1896848573447247,1.147156035496282,0.2994827941596257,1.3575522218664238,1.8125498294830322,0.0
603,2,103,1,1,-0.948897448166611,-0.25320086461997676,1.147156035496282,0.2994827941596257,1.3575522218664238,2.0755465030670166,0.0
604,2,104,1,1,0.39847019553080876,-0.7963171366017483,1.147156035496282,0.2994827941596257,1.3575522218664238,2.341543197631836,0.0
605,2,105,1,1,-0.29050415831576437,-0.5185954736966283,1.147156035496282,0.2994827941596257,1.3575522218664238,1.6265522241592407,0.0
606,2,106,1,1,1.8405274839117614,-1.3776022684758893,1.147156035496282,0.2994827941596257,1.3575522218664238,2.6225552558898926,0.0
607,2,107,1,-1,-2.01305336162321,0.17575436168921155,1.147156035496282,0.2994827941596257,1.3575522218664238,2.685558319091797,0.0
608,2,108,-1,-1,-0.974400866822704,0.3335758564138635,1.147156035496282,0.2994827941596257,1.3575522218664238,1.9035487174987793,0.0
609,2,109,-1,-1,-1.6485273642422467,0.6053124324221066,1.147156035496282,0.2994827941596257,1.3575522218664238,2.8565661907196045,1.0
610,2,110,1,1,2.0861372841047388,-1.4766061889477649,1.147156035496282,0.2994827941596257,1.3575522218664238,1.4385521411895752,0.0
611,2,111,1,-1,-1.274425378043734,-0.12198239835516667,1.147156035496282,0.2994827941596257,1.3575522218664238,2.6715574264526367,1.0
612,2,112,-1,-1,-2.4819271113838672,0.9412511540140853,1.147156035496282,0.2994827941596257,1.3575522218664238,1.779550313949585,1.0
613,2,113,1,1,1.4172327691433957,-1.2069745645155212,1.147156035496282,0.2994827941596257,1.3575522218664238,1.827549695968628,0.0
614,2,114,-1,-1,-0.9239954334203864,0.3132577114701661,1.147156035496282,0.2994827941596257,1.3575522218664238,3.4685816764831543,1.0
615,2,115,-1,-1,0.9596248989383438,-0.44601898448222754,1.147156035496282,0.2994827941596257,1.3575522218664238,1.8215497732162476,0.0
616,2,116,1,-1,-0.16080654483385404,-0.5708758476901178,1.147156035496282,0.2994827941596257,1.3575522218664238,1.4645521640777588,0.0
617,2,117,-1,1,1.1280460311016038,-0.5139085897071554,1.147156035496282,0.2994827941596257,1.3575522218664238,3.0915770530700684,0.0
618,2,118,1,-1,-2.0975147374443877,0.20980026428827314,1.147156035496282,0.2994827941596257,1.3575522218664238,5.670422077178955,0.0
619,2,119,-1,-1,-1.6990583038299034,0.6256811681988337,1.147156035496282,0.2994827941596257,1.3575522218664238,2.192544937133789,0.0
620,2,120,1,1,0.9915461043586302,-1.035382679040367,1.147156035496282,0.2994827941596257,1.3575522218664238,2.5795531272888184,0.0
621,2,121,-1,1,2.1408275006600492,-0.9221550684257211,1.147156035496282,0.2994827941596257,1.3575522218664238,1.7815502882003784,0.0
622,2,122,-1,-1,-0.40389567006170646,0.10360844027436508,1.147156035496282,0.2994827941596257,1.3575522218664238,1.5625524520874023,0.0
623,2,123,1,-1,-0.9433387298339391,-0.255441552521278,1.147156035496282,0.2994827941596257,1.3575522218664238,2.97357177734375,0.0
624,2,124,1,1,1.3197758880296604,-1.1676902472788298,1.147156035496282,0.2994827941596257,1.3575522218664238,1.6425520181655884,0.0
625,2,125,1,-1,0.2769133972928437,-0.7473182791615661,1.147156035496282,0.2994827941596257,1.3575522218664238,2.940570116043091,0.0
626,2,126,-1,1,0.5001056928602337,-0.2607893930811048,1.147156035496282,0.2994827941596257,1.3575522218664238,2.007547378540039,1.0
627,2,127,-1,-1,-1.7141921005054823,0.6317815159916715,1.147156035496282,0.2994827941596257,1.3575522218664238,1.7185510396957397,0.0
628,2,128,1,-1,-1.2729450783980958,-0.12257909876482531,1.147156035496282,0.2994827941596257,1.3575522218664238,2.458547592163086,0.0
629,2,129,-1,-1,0.08418943473175045,-0.09313590323518225,1.147156035496282,0.2994827941596257,1.3575522218664238,1.6075525283813477,0.0
630,2,130,-1,-1,-1.5045043487233292,0.5472575699396189,1.147156035496282,0.2994827941596257,1.3575522218664238,2.519550323486328,1.0
631,2,131,-1,-1,-0.542391752444054,0.1594354272882176,1.147156035496282,0.2994827941596257,1.3575522218664238,1.5355523824691772,0.0
632,2,132,-1,-1,-2.6723837534277655,1.0180231485657656,1.147156035496282,0.2994827941596257,1.3575522218664238,2.1315457820892334,1.0
633,2,133,-1,1,2.0793405715649316,-0.8973700352820522,1.147156035496282,0.2994827941596257,1.3575522218664238,1.424552083015442,0.0
634,2,134,1,-1,-0.24725365445197456,-0.5360295070354234,1.147156035496282,0.2994827941596257,1.3575522218664238,2.8475656509399414,0.0
635,2,135,-1,1,0.7533957736695809,-0.3628891912042277,1.147156035496282,0.2994827941596257,1.3575522218664238,2.8475656509399414,0.0
636,2,136,1,-1,-0.4594150841811563,-0.45050843540227326,1.147156035496282,0.2994827941596257,1.3575522218664238,2.1625454425811768,0.0
637,2,137,-1,-1,-0.06837778633222213,-0.031636919851926876,1.147156035496282,0.2994827941596257,1.3575522218664238,3.498579502105713,0.0
638,2,138,-1,1,0.5456326772757429,-0.27914106284695267,1.147156035496282,0.2994827941596257,1.3575522218664238,1.6315522193908691,0.0
639,2,139,1,1,-0.35950423800029774,-0.49078193206973375,1.147156035496282,0.2994827941596257,1.3575522218664238,1.750550627708435,0.0
640,2,140,1,1,1.8254670023487671,-1.3715314735900201,1.147156035496282,0.2994827941596257,1.3575522218664238,1.7435507774353027,0.0
641,2,141,-1,-1,-2.0984717219943363,0.786682456650198,1.147156035496282,0.2994827941596257,1.3575522218664238,2.344542980194092,1.0
642,2,142,1,1,1.6126836402927678,-1.2857597045556477,1.147156035496282,0.2994827941596257,1.3575522218664238,2.069546699523926,0.0
643,2,143,-1,-1,0.23890070112889572,-0.1554991391583882,1.147156035496282,0.2994827941596257,1.3575522218664238,1.7455507516860962,0.0
644,2,144,1,1,2.769714239905512,-1.7521521912462577,1.147156035496282,0.2994827941596257,1.3575522218664238,1.576552391052246,0.0
645,2,145,-1,1,1.8365603865198126,-0.7995067166625638,1.147156035496282,0.2994827941596257,1.3575522218664238,1.6715517044067383,0.0
646,2,146,-1,1,1.6534918478993785,-0.7257128247891966,1.147156035496282,0.2994827941596257,1.3575522218664238,3.627570152282715,0.0
647,2,147,-1,-1,-0.5556509979022084,0.16478015409400784,1.147156035496282,0.2994827941596257,1.3575522218664238,2.757561683654785,0.0
648,2,148,-1,1,-0.1780461176626098,0.012569763858519961,1.147156035496282,0.2994827941596257,1.3575522218664238,1.7705503702163696,1.0
649,2,149,-1,1,0.9309409480515894,-0.4344566462116042,1.147156035496282,0.2994827941596257,1.3575522218664238,4.133533477783203,0.0
650,2,150,-1,1,1.6093896073472378,-0.7079354612115827,1.147156035496282,0.2994827941596257,1.3575522218664238,1.5965524911880493,0.0
651,2,151,-1,1,2.2962289178513133,-0.9847965002282479,1.147156035496282,0.2994827941596257,1.3575522218664238,2.730560302734375,0.0
652,2,152,-1,-1,-1.7851814570142577,0.6603969238484519,1.147156035496282,0.2994827941596257,1.3575522218664238,1.5255522727966309,0.0
653,2,153,1,1,-0.029369251575656508,-0.6238574767560138,1.147156035496282,0.2994827941596257,1.3575522218664238,2.724560022354126,0.0
654,2,154,-1,-1,-0.5578360773414655,0.1656609472498956,1.147156035496282,0.2994827941596257,1.3575522218664238,2.0865464210510254,1.0
655,2,155,1,-1,-0.5762641654110543,-0.403407232045538,1.147156035496282,0.2994827941596257,1.3575522218664238,4.010542392730713,0.0
656,2,156,1,-1,1.2115456868032375,-1.1240632656744443,1.147156035496282,0.2994827941596257,1.3575522218664238,1.4565521478652954,0.0
657,2,157,-1,-1,-0.867320875596092,0.2904125179509883,1.147156035496282,0.2994827941596257,1.3575522218664238,1.9505481719970703,1.0
658,2,158,1,1,2.6885228358023108,-1.7194243957408766,1.147156035496282,0.2994827941596257,1.3575522218664238,1.5675524473190308,0.0
659,2,159,-1,-1,-3.1953073502466305,1.2288106910483734,1.147156035496282,0.2994827941596257,1.3575522218664238,4.013542175292969,0.0
660,2,160,-1,-1,-0.899976041609926,0.3035756305649367,1.147156035496282,0.2994827941596257,1.3575522218664238,2.678557872772217,0.0
661,2,161,1,1,0.22344113683405142,-0.7257639135875777,1.147156035496282,0.2994827941596257,1.3575522218664238,3.276585817337036,0.0
662,2,162,-1,1,1.192963876546208,-0.5400766058146285,1.147156035496282,0.2994827941596257,1.3575522218664238,2.0855464935302734,0.0
663,2,163,1,-1,-1.4889670546361544,-0.03550186268203781,1.147156035496282,0.2994827941596257,1.3575522218664238,2.486548900604248,1.0
664,2,164,-1,1,1.1406702454528956,-0.5189973390676172,1.147156035496282,0.2994827941596257,1.3575522218664238,10.252516746520996,0.0
665,2,165,-1,-1,-0.2906540179813534,0.05796137119219402,1.147156035496282,0.2994827941596257,1.3575522218664238,2.917569160461426,1.0
666,2,166,1,1,0.2434692070037845,-0.7338371153276201,1.147156035496282,0.2994827941596257,1.3575522218664238,1.7075512409210205,0.0
667,2,167,-1,-1,-0.271268973676389,0.050147369539147,1.147156035496282,0.2994827941596257,1.3575522218664238,1.6205523014068604,0.0
668,2,168,-1,-1,1.0405924385163536,-0.47865654146442616,1.147156035496282,0.2994827941596257,1.3575522218664238,2.695558547973633,0.0
669,2,169,1,-1,-1.7478893290673956,0.06886824081565102,1.147156035496282,0.2994827941596257,1.3575522218664238,1.9345483779907227,1.0
670,2,170,-1,-1,-1.1567980246844252,0.4070991185029562,1.147156035496282,0.2994827941596257,1.3575522218664238,4.497507095336914,1.0
671,2,171,1,1,2.0905145330058827,-1.4783706332075377,1.147156035496282,0.2994827941596257,1.3575522218664238,1.6825515031814575,0.0
672,2,172,1,1,1.3237394232036008,-1.1692879258765079,1.147156035496282,0.2994827941596257,1.3575522218664238,1.4395521879196167,0.0
673,2,173,-1,-1,-1.3399262052549799,0.48091705170888394,1.147156035496282,0.2994827941596257,1.3575522218664238,1.5335524082183838,0.0
674,2,174,1,1,1.0159368281084684,-1.0452144417488713,1.147156035496282,0.2994827941596257,1.3575522218664238,1.7125511169433594,0.0
675,2,175,-1,-1,-1.3052735930072008,0.46694877982223165,1.147156035496282,0.2994827941596257,1.3575522218664238,2.523550510406494,0.0
676,2,176,1,-1,-2.720659274448069,0.46098630057641365,1.147156035496282,0.2994827941596257,1.3575522218664238,2.193544864654541,1.0
677,2,177,1,-1,-0.37064572923763717,-0.48629086000529265,1.147156035496282,0.2994827941596257,1.3575522218664238,2.465548038482666,0.0
678,2,178,-1,-1,-1.6057995478410865,0.5880890914414387,1.147156035496282,0.2994827941596257,1.3575522218664238,2.1275458335876465,1.0
679,2,179,1,-1,-0.5671684272739728,-0.40707367261284877,1.147156035496282,0.2994827941596257,1.3575522218664238,1.9495481252670288,0.0
680,2,180,1,1,2.5207912034521973,-1.651812723988524,1.147156035496282,0.2994827941596257,1.3575522218664238,1.5085523128509521,0.0
681,2,181,-1,1,1.724836614923357,-0.7544714966132715,1.147156035496282,0.2994827941596257,1.3575522218664238,1.9285483360290527,0.0
682,2,182,1,1,2.259983947926357,-1.5466827952793247,1.147156035496282,0.2994827941596257,1.3575522218664238,2.480548620223999,0.0
683,2,183,-1,-1,0.3156624260672163,-0.18644135606140397,1.147156035496282,0.2994827941596257,1.3575522218664238,1.5345523357391357,0.0
684,2,184,1,1,0.4184347279323535,-0.8043647266270149,1.147156035496282,0.2994827941596257,1.3575522218664238,1.688551425933838,0.0
685,2,185,1,-1,-0.7299086100335872,-0.3414740259421862,1.147156035496282,0.2994827941596257,1.3575522218664238,1.517552375793457,0.0
686,2,186,1,1,2.080060041874752,-1.4741564869979518,1.147156035496282,0.2994827941596257,1.3575522218664238,1.7225509881973267,0.0
687,2,187,-1,-1,-0.14677124713321565,-3.695945719273119e-05,1.147156035496282,0.2994827941596257,1.3575522218664238,2.6505565643310547,0.0
688,2,188,-1,1,-0.19047482569639507,0.017579705728828998,1.147156035496282,0.2994827941596257,1.3575522218664238,2.8835673332214355,1.0
689,2,189,1,1,1.2070563127047638,-1.1222536243821808,1.147156035496282,0.2994827941596257,1.3575522218664238,1.5935524702072144,0.0
690,2,190,1,1,0.5017065116296024,-0.8379311113732102,1.147156035496282,0.2994827941596257,1.3575522218664238,2.8535661697387695,0.0
691,2,191,1,1,-0.2522387129818613,-0.5340200581540971,1.147156035496282,0.2994827941596257,1.3575522218664238,1.8475494384765625,0.0
692,2,192,-1,1,-0.16583559305167817,0.007647770491192099,1.147156035496282,0.2994827941596257,1.3575522218664238,2.2715439796447754,0.0
693,2,193,1,1,1.8785360024440574,-1.3929232871936628,1.147156035496282,0.2994827941596257,1.3575522218664238,1.5255522727966309,0.0
694,2,194,-1,1,-0.9977341293981588,0.3429813625074911,1.147156035496282,0.2994827941596257,1.3575522218664238,2.8025636672973633,1.0
695,2,195,-1,-1,-0.29762294884093277,0.060770507782239275,1.147156035496282,0.2994827941596257,1.3575522218664238,1.585552453994751,0.0
696,2,196,-1,1,3.1644756837872605,-1.3347818578855826,1.147156035496282,0.2994827941596257,1.3575522218664238,2.750561237335205,0.0
697,2,197,1,1,-0.6406489681357119,-0.37745408244181283,1.147156035496282,0.2994827941596257,1.3575522218664238,1.4375522136688232,0.0
698,2,198,-1,-1,-1.45808604640451,0.5285466149712053,1.147156035496282,0.2994827941596257,1.3575522218664238,2.482548713684082,1.0
699,2,199,1,1,0.8502230322647011,-0.9784161484726323,1.147156035496282,0.2994827941596257,1.3575522218664238,1.8105498552322388,0.0
700,2,200,1,-1,-2.535197130328067,0.3862275598723641,1.147156035496282,0.2994827941596257,1.3575522218664238,2.3205432891845703,1.0
701,2,201,-1,1,0.25792072789271026,-0.16316600430635098,1.147156035496282,0.2994827941596257,1.3575522218664238,1.683551549911499,0.0
702,2,202,1,-1,-1.6327757060632484,0.022466590848192136,1.147156035496282,0.2994827941596257,1.3575522218664238,1.9945476055145264,1.0
703,2,203,1,1,1.815469392633453,-1.367501493693509,1.147156035496282,0.2994827941596257,1.3575522218664238,1.7455507516860962,0.0
704,2,204,1,-1,-0.6157911174041084,-0.3874741413930427,1.147156035496282,0.2994827941596257,1.3575522218664238,2.3265433311462402,1.0
705,2,205,1,-1,-2.3219617176373055,0.3002735717854209,1.147156035496282,0.2994827941596257,1.3575522218664238,2.3845441341400146,1.0
706,2,206,-1,1,1.9570919577681973,-0.8480923109053398,1.147156035496282,0.2994827941596257,1.3575522218664238,1.512552261352539,0.0
707,2,207,-1,-1,1.0812892012971198,-0.49506117622510765,1.147156035496282,0.2994827941596257,1.3575522218664238,3.6085715293884277,0.0
708,2,208,1,-1,-2.249610661925134,0.27110927068605095,1.147156035496282,0.2994827941596257,1.3575522218664238,2.017547130584717,0.0
709,2,209,1,1,0.47425435342792155,-0.8268653017628237,1.147156035496282,0.2994827941596257,1.3575522218664238,1.6235523223876953,0.0
710,2,210,1,-1,-0.17095289124673785,-0.5667859128725659,1.147156035496282,0.2994827941596257,1.3575522218664238,1.45355224609375,0.0
711,2,211,1,-1,-1.514522011657216,-0.025200804130679155,1.147156035496282,0.2994827941596257,1.3575522218664238,1.6375521421432495,0.0
712,2,212,-1,-1,-1.0869460627217737,0.3789421879508318,1.147156035496282,0.2994827941596257,1.3575522218664238,2.764561891555786,1.0
713,2,213,1,1,0.6475773917341711,-0.8967308376125059,1.147156035496282,0.2994827941596257,1.3575522218664238,1.780550241470337,0.0
714,2,214,1,1,1.3088592024413757,-1.1632897930992743,1.147156035496282,0.2994827941596257,1.3575522218664238,2.6095547676086426,0.0
715,2,215,-1,1,0.44225368845682267,-0.23746957750943912,1.147156035496282,0.2994827941596257,1.3575522218664238,1.7515506744384766,0.0
716,2,216,-1,-1,-0.5333270307461027,0.15578148927198807,1.147156035496282,0.2994827941596257,1.3575522218664238,2.3195433616638184,1.0
717,2,217,1,-1,-2.1635555874358428,0.23642095717313316,1.147156035496282,0.2994827941596257,1.3575522218664238,3.8535537719726562,1.0
718,2,218,1,-1,-0.30858925048620867,-0.5113054753921534,1.147156035496282,0.2994827941596257,1.3575522218664238,3.025574207305908,0.0
719,2,219,1,1,0.014273651375177998,-0.6414496839460824,1.147156035496282,0.2994827941596257,1.3575522218664238,2.3705434799194336,0.0
720,2,220,-1,1,2.575928824502554,-1.0975419496864258,1.147156035496282,0.2994827941596257,1.3575522218664238,2.50154972076416,0.0
721,2,221,1,1,1.5928610487450885,-1.2777693300852846,1.147156035496282,0.2994827941596257,1.3575522218664238,1.5365523099899292,0.0
722,2,222,-1,-1,0.011170007301820606,-0.06370218527891741,1.147156035496282,0.2994827941596257,1.3575522218664238,2.1245458126068115,0.0
723,2,223,1,-1,0.5113999490706598,-0.8418384811473785,1.147156035496282,0.2994827941596257,1.3575522218664238,3.202582359313965,0.0
724,2,224,-1,1,1.7754610493046785,-0.7748779196122073,1.147156035496282,0.2994827941596257,1.3575522218664238,4.385515213012695,0.0
725,2,225,1,1,0.019057357790039586,-0.6433779689293593,1.147156035496282,0.2994827941596257,1.3575522218664238,1.632552146911621,0.0
726,2,226,-1,1,1.303463594284626,-0.5846184166810657,1.147156035496282,0.2994827941596257,1.3575522218664238,1.5835524797439575,0.0
727,2,227,1,-1,-1.414846493971899,-0.06537944121338746,1.147156035496282,0.2994827941596257,1.3575522218664238,1.4855523109436035,0.0
728,2,228,-1,-1,-0.11643032865742786,-0.012267211985635774,1.147156035496282,0.2994827941596257,1.3575522218664238,2.2125446796417236,0.0
729,2,229,-1,1,0.32159508325082575,-0.18883277659727624,1.147156035496282,0.2994827941596257,1.3575522218664238,2.0905463695526123,0.0
730,2,230,1,-1,-2.9657618047515077,0.5597857434266218,1.147156035496282,0.2994827941596257,1.3575522218664238,1.9705479145050049,1.0
731,2,231,-1,-1,-2.009733937176976,0.7509127577863675,1.147156035496282,0.2994827941596257,1.3575522218664238,2.773562431335449,1.0
732,2,232,-1,1,1.5668173907903054,-0.6907748416475328,1.147156035496282,0.2994827941596257,1.3575522218664238,5.259451866149902,0.0
733,2,233,1,-1,-3.5018939005349585,0.7758975570906532,1.147156035496282,0.2994827941596257,1.3575522218664238,3.1715807914733887,0.0
734,2,234,1,1,1.4288031679612114,-1.2116385267983245,1.147156035496282,0.2994827941596257,1.3575522218664238,1.4655522108078003,0.0
735,2,235,1,1,0.2207050461868859,-0.7246610109321341,1.147156035496282,0.2994827941596257,1.3575522218664238,5.415440559387207,0.0
736,2,236,-1,1,1.590686488744526,-0.7003963399498738,1.147156035496282,0.2994827941596257,1.3575522218664238,1.6465519666671753,0.0
737,2,237,1,1,0.42608384816282574,-0.8074480437030536,1.147156035496282,0.2994827941596257,1.3575522218664238,1.7035512924194336,0.0
738,2,238,1,-1,-2.8262983330629456,0.5035688072582056,1.147156035496282,0.2994827941596257,1.3575522218664238,2.061546802520752,0.0
739,2,239,-1,-1,0.4519103725637672,-0.2413621322226256,1.147156035496282,0.2994827941596257,1.3575522218664238,1.4915522336959839,0.0
740,2,240,-1,-1,0.011272312745581603,-0.06374342402431762,1.147156035496282,0.2994827941596257,1.3575522218664238,4.320519924163818,0.0
741,2,241,1,-1,-0.09432658258477311,-0.5976735442409474,1.147156035496282,0.2994827941596257,1.3575522218664238,2.2605440616607666,0.0
742,2,242,-1,1,2.3730478558067,-1.015761779374656,1.147156035496282,0.2994827941596257,1.3575522218664238,1.4925522804260254,0.0
743,2,243,-1,-1,-1.0460389830590748,0.362452775645295,1.147156035496282,0.2994827941596257,1.3575522218664238,1.7425507307052612,1.0
744,2,244,-1,1,1.5786467324169204,-0.6955431823111213,1.147156035496282,0.2994827941596257,1.3575522218664238,2.523550510406494,1.0
745,2,245,1,1,0.8878620407398591,-0.9935882197775514,1.147156035496282,0.2994827941596257,1.3575522218664238,4.520505428314209,0.0
746,2,246,-1,1,1.6500828712421047,-0.7243386855911595,1.147156035496282,0.2994827941596257,1.3575522218664238,1.9475481510162354,0.0
747,2,247,-1,-1,-2.7940078585870394,1.0670491370450155,1.147156035496282,0.2994827941596257,1.3575522218664238,3.038574695587158,1.0
748,2,248,-1,-1,-1.7007004544354902,0.6263431098144803,1.147156035496282,0.2994827941596257,1.3575522218664238,3.836555004119873,1.0
