,subj_idx,trial_idx,S,X,M,v,a,z,t,rt,response
0,1,0,-1,-1,-0.37595361094558244,-0.7973930719627693,1.5642746913091752,0.34630777200151747,1.2450891667559825,2.015082836151123,0.0
1,1,1,1,1,0.2579478958580226,-1.2383174144493572,1.5642746913091752,0.34630777200151747,1.2450891667559825,3.440112590789795,0.0
2,1,2,-1,1,0.04025574269223353,-0.7973930719627693,1.5642746913091752,0.34630777200151747,1.2450891667559825,1.4650894403457642,0.0
3,1,3,1,1,0.538047782655362,-1.2383174144493572,1.5642746913091752,0.34630777200151747,1.2450891667559825,2.0060830116271973,0.0
4,1,4,-1,-1,0.3562273236949478,-0.7973930719627693,1.5642746913091752,0.34630777200151747,1.2450891667559825,3.7930870056152344,0.0
5,1,5,-1,1,-0.024854286574865547,-0.7973930719627693,1.5642746913091752,0.34630777200151747,1.2450891667559825,1.644087553024292,0.0
6,1,6,1,1,0.4406596603912194,-1.2383174144493572,1.5642746913091752,0.34630777200151747,1.2450891667559825,1.552088737487793,0.0
7,1,7,1,1,1.9087848506984348,-1.2383174144493572,1.5642746913091752,0.34630777200151747,1.2450891667559825,1.9570835828781128,0.0
8,1,8,-1,-1,0.9800117020393286,-0.7973930719627693,1.5642746913091752,0.34630777200151747,1.2450891667559825,2.1310813426971436,0.0
9,1,9,-1,1,0.7274304100141851,-0.7973930719627693,1.5642746913091752,0.34630777200151747,1.2450891667559825,1.5370889902114868,0.0
10,1,10,-1,-1,-2.9460318313695835,-0.7973930719627693,1.5642746913091752,0.34630777200151747,1.2450891667559825,3.0521175861358643,0.0
11,1,11,1,1,1.238179159750867,-1.2383174144493572,1.5642746913091752,0.34630777200151747,1.2450891667559825,1.7740859985351562,0.0
12,1,12,-1,1,2.0706386170778726,-0.7973930719627693,1.5642746913091752,0.34630777200151747,1.2450891667559825,2.067082166671753,0.0
13,1,13,1,1,1.5051986171561542,-1.2383174144493572,1.5642746913091752,0.34630777200151747,1.2450891667559825,1.9610835313796997,0.0
14,1,14,-1,1,1.104439061683838,-0.7973930719627693,1.5642746913091752,0.34630777200151747,1.2450891667559825,2.9021105766296387,0.0
15,1,15,1,-1,-0.2895935933870263,-1.2383174144493572,1.5642746913091752,0.34630777200151747,1.2450891667559825,2.0470824241638184,0.0
16,1,16,-1,1,1.4535286183177891,-0.7973930719627693,1.5642746913091752,0.34630777200151747,1.2450891667559825,2.014082908630371,0.0
17,1,17,-1,-1,-2.099888023042562,-0.7973930719627693,1.5642746913091752,0.34630777200151747,1.2450891667559825,4.6440253257751465,0.0
18,1,18,1,-1,-2.397157082274415,-1.2383174144493572,1.5642746913091752,0.34630777200151747,1.2450891667559825,2.704101324081421,0.0
19,1,19,-1,-1,-2.141227994559072,-0.7973930719627693,1.5642746913091752,0.34630777200151747,1.2450891667559825,2.405087471008301,0.0
20,1,20,-1,1,0.9895397204086054,-0.7973930719627693,1.5642746913091752,0.34630777200151747,1.2450891667559825,3.264125347137451,0.0
21,1,21,-1,1,0.07566322205222953,-0.7973930719627693,1.5642746913091752,0.34630777200151747,1.2450891667559825,3.415114402770996,0.0
22,1,22,-1,-1,-1.5432243775237744,-0.7973930719627693,1.5642746913091752,0.34630777200151747,1.2450891667559825,3.247126579284668,0.0
23,1,23,-1,-1,0.3750383382805611,-0.7973930719627693,1.5642746913091752,0.34630777200151747,1.2450891667559825,1.7090867757797241,0.0
24,1,24,1,-1,-2.531973799549546,-1.2383174144493572,1.5642746913091752,0.34630777200151747,1.2450891667559825,2.9151110649108887,0.0
25,1,25,-1,-1,-0.8949697721008575,-0.7973930719627693,1.5642746913091752,0.34630777200151747,1.2450891667559825,4.992000102996826,0.0
26,1,26,1,-1,1.2016968958558967,-1.2383174144493572,1.5642746913091752,0.34630777200151747,1.2450891667559825,1.7460863590240479,0.0
27,1,27,-1,1,1.0320666999204426,-0.7973930719627693,1.5642746913091752,0.34630777200151747,1.2450891667559825,1.595088243484497,0.0
28,1,28,1,-1,-2.7661001126049576,-1.2383174144493572,1.5642746913091752,0.34630777200151747,1.2450891667559825,1.478089451789856,0.0
29,1,29,-1,-1,-2.3546078786405493,-0.7973930719627693,1.5642746913091752,0.34630777200151747,1.2450891667559825,1.445089340209961,0.0
30,1,30,1,-1,0.9047708868649822,-1.2383174144493572,1.5642746913091752,0.34630777200151747,1.2450891667559825,2.010082960128784,0.0
31,1,31,-1,-1,-2.0290313124160813,-0.7973930719627693,1.5642746913091752,0.34630777200151747,1.2450891667559825,1.8070855140686035,0.0
32,1,32,-1,1,-0.3466364740304462,-0.7973930719627693,1.5642746913091752,0.34630777200151747,1.2450891667559825,2.3100829124450684,0.0
33,1,33,-1,1,1.182116131205828,-0.7973930719627693,1.5642746913091752,0.34630777200151747,1.2450891667559825,3.5321059226989746,0.0
34,1,34,-1,-1,-0.5738807243641726,-0.7973930719627693,1.5642746913091752,0.34630777200151747,1.2450891667559825,1.599088191986084,0.0
35,1,35,1,1,-0.1372981340383288,-1.2383174144493572,1.5642746913091752,0.34630777200151747,1.2450891667559825,2.776104688644409,0.0
36,1,36,-1,1,4.029825955485503,-0.7973930719627693,1.5642746913091752,0.34630777200151747,1.2450891667559825,2.6090970039367676,0.0
37,1,37,-1,-1,-2.374467780071533,-0.7973930719627693,1.5642746913091752,0.34630777200151747,1.2450891667559825,2.2350800037384033,0.0
38,1,38,1,1,0.09270022015629353,-1.2383174144493572,1.5642746913091752,0.34630777200151747,1.2450891667559825,1.8000855445861816,0.0
39,1,39,-1,1,0.14801974921939653,-0.7973930719627693,1.5642746913091752,0.34630777200151747,1.2450891667559825,2.067082166671753,0.0
40,1,40,1,-1,-0.9534110154909272,-1.2383174144493572,1.5642746913091752,0.34630777200151747,1.2450891667559825,1.8440849781036377,0.0
41,1,41,-1,1,0.5595711455042971,-0.7973930719627693,1.5642746913091752,0.34630777200151747,1.2450891667559825,1.7620861530303955,0.0
42,1,42,-1,-1,-1.432586193182122,-0.7973930719627693,1.5642746913091752,0.34630777200151747,1.2450891667559825,1.4900895357131958,0.0
43,1,43,-1,-1,-1.43905853807015,-0.7973930719627693,1.5642746913091752,0.34630777200151747,1.2450891667559825,5.833939075469971,0.0
44,1,44,-1,-1,0.4375451706805611,-0.7973930719627693,1.5642746913091752,0.34630777200151747,1.2450891667559825,1.5020893812179565,0.0
45,1,45,1,1,0.4066402628311706,-1.2383174144493572,1.5642746913091752,0.34630777200151747,1.2450891667559825,2.156080961227417,0.0
46,1,46,1,-1,-0.2251713384534212,-1.2383174144493572,1.5642746913091752,0.34630777200151747,1.2450891667559825,1.6710872650146484,0.0
47,1,47,1,1,-0.36965683219180145,-1.2383174144493572,1.5642746913091752,0.34630777200151747,1.2450891667559825,2.5250930786132812,0.0
48,1,48,-1,1,1.1029066292735958,-0.7973930719627693,1.5642746913091752,0.34630777200151747,1.2450891667559825,2.103081703186035,0.0
49,1,49,1,1,2.9100810602936464,-1.2383174144493572,1.5642746913091752,0.34630777200151747,1.2450891667559825,1.9130841493606567,0.0
50,1,50,1,1,0.586026369432139,-1.2383174144493572,1.5642746913091752,0.34630777200151747,1.2450891667559825,2.0940818786621094,0.0
51,1,51,1,1,1.9558797350734454,-1.2383174144493572,1.5642746913091752,0.34630777200151747,1.2450891667559825,1.507089376449585,0.0
52,1,52,1,1,1.4171194449455942,-1.2383174144493572,1.5642746913091752,0.34630777200151747,1.2450891667559825,1.7060867547988892,0.0
53,1,53,1,1,1.6624607930908715,-1.2383174144493572,1.5642746913091752,0.34630777200151747,1.2450891667559825,1.673087239265442,0.0
54,1,54,-1,-1,-1.8641467019195035,-0.7973930719627693,1.5642746913091752,0.34630777200151747,1.2450891667559825,1.7940857410430908,0.0
55,1,55,-1,1,2.6928873529878876,-0.7973930719627693,1.5642746913091752,0.34630777200151747,1.2450891667559825,1.6020880937576294,0.0
56,1,56,1,-1,-1.786508666711391,-1.2383174144493572,1.5642746913091752,0.34630777200151747,1.2450891667559825,4.048068523406982,0.0
57,1,57,-1,-1,-1.3653077128929447,-0.7973930719627693,1.5642746913091752,0.34630777200151747,1.2450891667559825,1.4590893983840942,0.0
58,1,58,-1,1,0.15741989975454662,-0.7973930719627693,1.5642746913091752,0.34630777200151747,1.2450891667559825,3.0611181259155273,0.0
59,1,59,1,-1,-2.9515551755571794,-1.2383174144493572,1.5642746913091752,0.34630777200151747,1.2450891667559825,1.7590861320495605,0.0
60,1,60,-1,-1,-2.388789077132232,-0.7973930719627693,1.5642746913091752,0.34630777200151747,1.2450891667559825,1.6710872650146484,0.0
61,1,61,1,-1,-0.9539135254359852,-1.2383174144493572,1.5642746913091752,0.34630777200151747,1.2450891667559825,1.5020893812179565,0.0
62,1,62,-1,-1,-1.228156794344768,-0.7973930719627693,1.5642746913091752,0.34630777200151747,1.2450891667559825,5.271979808807373,0.0
63,1,63,1,1,1.6504123056762028,-1.2383174144493572,1.5642746913091752,0.34630777200151747,1.2450891667559825,3.24812650680542,0.0
64,1,64,1,1,-0.14994893040037405,-1.2383174144493572,1.5642746913091752,0.34630777200151747,1.2450891667559825,1.6320877075195312,0.0
65,1,65,-1,-1,-1.1464884833145836,-0.7973930719627693,1.5642746913091752,0.34630777200151747,1.2450891667559825,4.880008220672607,0.0
66,1,66,1,1,0.0011564368260937874,-1.2383174144493572,1.5642746913091752,0.34630777200151747,1.2450891667559825,1.7190866470336914,0.0
67,1,67,-1,1,0.14369742441418398,-0.7973930719627693,1.5642746913091752,0.34630777200151747,1.2450891667559825,3.219125270843506,0.0
68,1,68,-1,1,1.7067786624712542,-0.7973930719627693,1.5642746913091752,0.34630777200151747,1.2450891667559825,1.640087604522705,0.0
69,1,69,1,1,1.7983597072503499,-1.2383174144493572,1.5642746913091752,0.34630777200151747,1.2450891667559825,2.157081127166748,0.0
70,1,70,-1,1,1.3480115053844441,-0.7973930719627693,1.5642746913091752,0.34630777200151747,1.2450891667559825,2.3690857887268066,0.0
71,1,71,1,-1,-0.006806635535329009,-1.2383174144493572,1.5642746913091752,0.34630777200151747,1.2450891667559825,2.998115062713623,0.0
72,1,72,-1,-1,0.15094724335221987,-0.7973930719627693,1.5642746913091752,0.34630777200151747,1.2450891667559825,1.4560893774032593,0.0
73,1,73,1,1,1.3831062472965032,-1.2383174144493572,1.5642746913091752,0.34630777200151747,1.2450891667559825,2.44408917427063,0.0
74,1,74,1,1,0.23672184678760566,-1.2383174144493572,1.5642746913091752,0.34630777200151747,1.2450891667559825,3.2821240425109863,0.0
75,1,75,1,1,-0.6717538054681613,-1.2383174144493572,1.5642746913091752,0.34630777200151747,1.2450891667559825,1.5890883207321167,0.0
76,1,76,-1,1,-0.9142037383838626,-0.7973930719627693,1.5642746913091752,0.34630777200151747,1.2450891667559825,1.5580886602401733,0.0
77,1,77,-1,1,0.6529979649819553,-0.7973930719627693,1.5642746913091752,0.34630777200151747,1.2450891667559825,1.9210840463638306,0.0
78,1,78,1,1,-0.10170786425984679,-1.2383174144493572,1.5642746913091752,0.34630777200151747,1.2450891667559825,1.9620835781097412,0.0
79,1,79,1,1,0.457094049586772,-1.2383174144493572,1.5642746913091752,0.34630777200151747,1.2450891667559825,3.5981011390686035,0.0
80,1,80,-1,1,1.5554040979937667,-0.7973930719627693,1.5642746913091752,0.34630777200151747,1.2450891667559825,1.926084041595459,0.0
81,1,81,1,-1,0.9347162985056621,-1.2383174144493572,1.5642746913091752,0.34630777200151747,1.2450891667559825,3.021116256713867,0.0
82,1,82,-1,1,0.030663224629913,-0.7973930719627693,1.5642746913091752,0.34630777200151747,1.2450891667559825,2.1690807342529297,0.0
83,1,83,1,1,1.965458620679358,-1.2383174144493572,1.5642746913091752,0.34630777200151747,1.2450891667559825,1.7370864152908325,0.0
84,1,84,1,1,2.6240431805426208,-1.2383174144493572,1.5642746913091752,0.34630777200151747,1.2450891667559825,1.8290852308273315,0.0
85,1,85,1,1,1.0637299206463262,-1.2383174144493572,1.5642746913091752,0.34630777200151747,1.2450891667559825,1.64308762550354,0.0
86,1,86,-1,1,1.2007297093507667,-0.7973930719627693,1.5642746913091752,0.34630777200151747,1.2450891667559825,1.547088861465454,0.0
87,1,87,-1,1,1.5537238979851862,-0.7973930719627693,1.5642746913091752,0.34630777200151747,1.2450891667559825,5.031997203826904,0.0
88,1,88,-1,-1,-1.1666739918756637,-0.7973930719627693,1.5642746913091752,0.34630777200151747,1.2450891667559825,2.0830819606781006,0.0
89,1,89,-1,1,-1.7800209748140166,-0.7973930719627693,1.5642746913091752,0.34630777200151747,1.2450891667559825,3.0451173782348633,0.0
90,1,90,-1,1,2.8559943993469314,-0.7973930719627693,1.5642746913091752,0.34630777200151747,1.2450891667559825,2.949112892150879,0.0
91,1,91,1,1,1.2958417398898763,-1.2383174144493572,1.5642746913091752,0.34630777200151747,1.2450891667559825,2.212080240249634,0.0
92,1,92,-1,-1,-1.61451079087408,-0.7973930719627693,1.5642746913091752,0.34630777200151747,1.2450891667559825,1.9760832786560059,0.0
93,1,93,1,-1,-0.3998697158256037,-1.2383174144493572,1.5642746913091752,0.34630777200151747,1.2450891667559825,1.5450888872146606,0.0
94,1,94,1,1,1.8616625770279054,-1.2383174144493572,1.5642746913091752,0.34630777200151747,1.2450891667559825,1.8370851278305054,0.0
95,1,95,1,-1,-1.3846917205985994,-1.2383174144493572,1.5642746913091752,0.34630777200151747,1.2450891667559825,1.7960855960845947,0.0
96,1,96,1,-1,-0.9639624783526701,-1.2383174144493572,1.5642746913091752,0.34630777200151747,1.2450891667559825,1.5390889644622803,0.0
97,1,97,-1,1,0.8637579673103516,-0.7973930719627693,1.5642746913091752,0.34630777200151747,1.2450891667559825,1.6260877847671509,0.0
98,1,98,-1,1,1.2619162027488982,-0.7973930719627693,1.5642746913091752,0.34630777200151747,1.2450891667559825,1.414089322090149,0.0
99,1,99,1,-1,0.06240973886168999,-1.2383174144493572,1.5642746913091752,0.34630777200151747,1.2450891667559825,1.5490888357162476,0.0
100,1,100,1,-1,-1.1854618047390026,-1.2383174144493572,1.5642746913091752,0.34630777200151747,1.2450891667559825,2.0780820846557617,0.0
101,1,101,-1,-1,-1.3611793579961655,-0.7973930719627693,1.5642746913091752,0.34630777200151747,1.2450891667559825,1.788085699081421,0.0
102,1,102,1,1,0.8454791258110133,-1.2383174144493572,1.5642746913091752,0.34630777200151747,1.2450891667559825,2.0520823001861572,0.0
103,1,103,1,-1,-2.53108048437569,-1.2383174144493572,1.5642746913091752,0.34630777200151747,1.2450891667559825,3.2811241149902344,0.0
104,1,104,-1,1,2.198430294957999,-0.7973930719627693,1.5642746913091752,0.34630777200151747,1.2450891667559825,2.262080669403076,0.0
105,1,105,1,1,0.14977319083728313,-1.2383174144493572,1.5642746913091752,0.34630777200151747,1.2450891667559825,1.6630873680114746,0.0
106,1,106,-1,-1,-0.5861339591328589,-0.7973930719627693,1.5642746913091752,0.34630777200151747,1.2450891667559825,3.1571226119995117,0.0
107,1,107,1,-1,-2.025153384823515,-1.2383174144493572,1.5642746913091752,0.34630777200151747,1.2450891667559825,3.3441195487976074,0.0
108,1,108,-1,-1,-2.256749913108731,-0.7973930719627693,1.5642746913091752,0.34630777200151747,1.2450891667559825,3.1551222801208496,0.0
109,1,109,-1,-1,-0.601983675512448,-0.7973930719627693,1.5642746913091752,0.34630777200151747,1.2450891667559825,1.665087342262268,0.0
110,1,110,-1,1,1.7291446341222692,-0.7973930719627693,1.5642746913091752,0.34630777200151747,1.2450891667559825,2.8401076793670654,0.0
111,1,111,1,-1,-1.3695517153892813,-1.2383174144493572,1.5642746913091752,0.34630777200151747,1.2450891667559825,1.5400888919830322,0.0
112,1,112,1,1,2.3106031643199234,-1.2383174144493572,1.5642746913091752,0.34630777200151747,1.2450891667559825,2.947112560272217,0.0
113,1,113,-1,-1,-1.621038826596756,-0.7973930719627693,1.5642746913091752,0.34630777200151747,1.2450891667559825,2.8291072845458984,0.0
114,1,114,1,-1,-0.9641123132794458,-1.2383174144493572,1.5642746913091752,0.34630777200151747,1.2450891667559825,1.5560886859893799,0.0
115,1,115,1,-1,-0.1282689425754422,-1.2383174144493572,1.5642746913091752,0.34630777200151747,1.2450891667559825,3.5351057052612305,0.0
116,1,116,1,-1,-1.5931694638741405,-1.2383174144493572,1.5642746913091752,0.34630777200151747,1.2450891667559825,1.9620835781097412,0.0
117,1,117,-1,-1,-1.5857616593298864,-0.7973930719627693,1.5642746913091752,0.34630777200151747,1.2450891667559825,3.251126289367676,0.0
118,1,118,-1,-1,-1.4135016876350757,-0.7973930719627693,1.5642746913091752,0.34630777200151747,1.2450891667559825,1.4120893478393555,0.0
119,1,119,-1,-1,0.6810860410741895,-0.7973930719627693,1.5642746913091752,0.34630777200151747,1.2450891667559825,1.7260864973068237,0.0
120,1,120,1,1,-1.171205310780321,-1.2383174144493572,1.5642746913091752,0.34630777200151747,1.2450891667559825,1.7960855960845947,0.0
121,1,121,1,1,1.3580031065123306,-1.2383174144493572,1.5642746913091752,0.34630777200151747,1.2450891667559825,2.3310837745666504,0.0
122,1,122,1,1,-0.18782893622012042,-1.2383174144493572,1.5642746913091752,0.34630777200151747,1.2450891667559825,1.507089376449585,0.0
123,1,123,1,1,2.4282792577856966,-1.2383174144493572,1.5642746913091752,0.34630777200151747,1.2450891667559825,1.5540887117385864,0.0
124,1,124,1,-1,-0.9812190612261047,-1.2383174144493572,1.5642746913091752,0.34630777200151747,1.2450891667559825,2.026082754135132,0.0
125,1,125,1,1,2.0500326030168,-1.2383174144493572,1.5642746913091752,0.34630777200151747,1.2450891667559825,2.2180802822113037,0.0
126,1,126,1,1,1.0078298979458893,-1.2383174144493572,1.5642746913091752,0.34630777200151747,1.2450891667559825,2.0940818786621094,0.0
127,1,127,-1,1,1.6835829750391718,-0.7973930719627693,1.5642746913091752,0.34630777200151747,1.2450891667559825,1.8550848960876465,0.0
128,1,128,-1,-1,-0.7192301497612961,-0.7973930719627693,1.5642746913091752,0.34630777200151747,1.2450891667559825,2.056082248687744,0.0
129,1,129,1,-1,-0.809972880263514,-1.2383174144493572,1.5642746913091752,0.34630777200151747,1.2450891667559825,1.673087239265442,0.0
130,1,130,1,-1,-0.9218389733537424,-1.2383174144493572,1.5642746913091752,0.34630777200151747,1.2450891667559825,1.6720871925354004,0.0
131,1,131,1,-1,-0.6982375373126881,-1.2383174144493572,1.5642746913091752,0.34630777200151747,1.2450891667559825,2.250080108642578,0.0
132,1,132,-1,-1,-0.0490973990629594,-0.7973930719627693,1.5642746913091752,0.34630777200151747,1.2450891667559825,4.614027500152588,0.0
133,1,133,-1,-1,-1.5110335299935522,-0.7973930719627693,1.5642746913091752,0.34630777200151747,1.2450891667559825,3.6820950508117676,0.0
134,1,134,-1,1,0.44761577787450924,-0.7973930719627693,1.5642746913091752,0.34630777200151747,1.2450891667559825,2.8931102752685547,0.0
135,1,135,1,1,1.4386565397990494,-1.2383174144493572,1.5642746913091752,0.34630777200151747,1.2450891667559825,1.6190879344940186,0.0
136,1,136,-1,-1,-1.095320503984445,-0.7973930719627693,1.5642746913091752,0.34630777200151747,1.2450891667559825,2.1430811882019043,0.0
137,1,137,-1,1,0.5600322917434597,-0.7973930719627693,1.5642746913091752,0.34630777200151747,1.2450891667559825,1.508089303970337,0.0
138,1,138,1,-1,-1.5130865711038226,-1.2383174144493572,1.5642746913091752,0.34630777200151747,1.2450891667559825,2.8141064643859863,0.0
139,1,139,-1,1,0.939398579915004,-0.7973930719627693,1.5642746913091752,0.34630777200151747,1.2450891667559825,1.9790832996368408,0.0
140,1,140,-1,-1,-2.207761456047731,-0.7973930719627693,1.5642746913091752,0.34630777200151747,1.2450891667559825,1.3620892763137817,0.0
141,1,141,-1,1,2.1891206618785426,-0.7973930719627693,1.5642746913091752,0.34630777200151747,1.2450891667559825,1.5620886087417603,0.0
142,1,142,-1,1,2.8590963686174256,-0.7973930719627693,1.5642746913091752,0.34630777200151747,1.2450891667559825,1.8390851020812988,0.0
143,1,143,-1,1,0.8817927543608545,-0.7973930719627693,1.5642746913091752,0.34630777200151747,1.2450891667559825,2.8921101093292236,0.0
144,1,144,1,-1,-1.9440629083388963,-1.2383174144493572,1.5642746913091752,0.34630777200151747,1.2450891667559825,1.9120841026306152,0.0
145,1,145,-1,-1,-2.215584612428646,-0.7973930719627693,1.5642746913091752,0.34630777200151747,1.2450891667559825,1.9650834798812866,0.0
146,1,146,1,-1,-1.91790660364663,-1.2383174144493572,1.5642746913091752,0.34630777200151747,1.2450891667559825,2.454089641571045,0.0
147,1,147,-1,1,1.2898683820611427,-0.7973930719627693,1.5642746913091752,0.34630777200151747,1.2450891667559825,1.8890844583511353,0.0
148,1,148,1,1,0.6612832585303156,-1.2383174144493572,1.5642746913091752,0.34630777200151747,1.2450891667559825,1.4050893783569336,0.0
149,1,149,1,-1,-0.5269009198033319,-1.2383174144493572,1.5642746913091752,0.34630777200151747,1.2450891667559825,1.9850832223892212,0.0
150,1,150,1,1,0.41543322366328406,-1.2383174144493572,1.5642746913091752,0.34630777200151747,1.2450891667559825,2.711101531982422,0.0
151,1,151,1,1,0.6078529217779477,-1.2383174144493572,1.5642746913091752,0.34630777200151747,1.2450891667559825,1.548088788986206,0.0
152,1,152,1,-1,0.1774579489926038,-1.2383174144493572,1.5642746913091752,0.34630777200151747,1.2450891667559825,1.3760892152786255,0.0
153,1,153,-1,1,1.4760436026104764,-0.7973930719627693,1.5642746913091752,0.34630777200151747,1.2450891667559825,1.7290865182876587,0.0
154,1,154,-1,1,1.6946270384088669,-0.7973930719627693,1.5642746913091752,0.34630777200151747,1.2450891667559825,2.07108211517334,0.0
155,1,155,1,-1,-2.179657607472952,-1.2383174144493572,1.5642746913091752,0.34630777200151747,1.2450891667559825,1.475089430809021,0.0
156,1,156,-1,-1,-2.280628987999384,-0.7973930719627693,1.5642746913091752,0.34630777200151747,1.2450891667559825,3.198124408721924,0.0
157,1,157,-1,1,1.0176963091205768,-0.7973930719627693,1.5642746913091752,0.34630777200151747,1.2450891667559825,1.835085153579712,0.0
158,1,158,-1,1,0.8329118790450573,-0.7973930719627693,1.5642746913091752,0.34630777200151747,1.2450891667559825,2.208080291748047,0.0
159,1,159,-1,1,-0.15265310924428666,-0.7973930719627693,1.5642746913091752,0.34630777200151747,1.2450891667559825,3.4101147651672363,0.0
160,1,160,1,1,0.5530238623447568,-1.2383174144493572,1.5642746913091752,0.34630777200151747,1.2450891667559825,1.927083969116211,0.0
161,1,161,-1,-1,-2.462835279274333,-0.7973930719627693,1.5642746913091752,0.34630777200151747,1.2450891667559825,2.949112892150879,0.0
162,1,162,1,-1,-0.5989699161954272,-1.2383174144493572,1.5642746913091752,0.34630777200151747,1.2450891667559825,1.8070855140686035,0.0
163,1,163,-1,1,1.26954425781881,-0.7973930719627693,1.5642746913091752,0.34630777200151747,1.2450891667559825,2.6410984992980957,0.0
164,1,164,-1,1,0.10973389895890628,-0.7973930719627693,1.5642746913091752,0.34630777200151747,1.2450891667559825,2.0880818367004395,1.0
165,1,165,-1,-1,0.7110229148268981,-0.7973930719627693,1.5642746913091752,0.34630777200151747,1.2450891667559825,1.8470849990844727,0.0
166,1,166,1,-1,-0.38186315910660884,-1.2383174144493572,1.5642746913091752,0.34630777200151747,1.2450891667559825,2.6260976791381836,0.0
167,1,167,1,-1,-1.5169659256296022,-1.2383174144493572,1.5642746913091752,0.34630777200151747,1.2450891667559825,1.9870831966400146,0.0
168,1,168,1,-1,-1.847818347127223,-1.2383174144493572,1.5642746913091752,0.34630777200151747,1.2450891667559825,1.7230865955352783,0.0
169,1,169,-1,-1,-0.7300041950238026,-0.7973930719627693,1.5642746913091752,0.34630777200151747,1.2450891667559825,1.9560835361480713,0.0
170,1,170,1,-1,-2.0713058481980045,-1.2383174144493572,1.5642746913091752,0.34630777200151747,1.2450891667559825,1.8190853595733643,0.0
171,1,171,-1,-1,-1.7862986824687612,-0.7973930719627693,1.5642746913091752,0.34630777200151747,1.2450891667559825,2.1940805912017822,0.0
172,1,172,1,1,1.9221678356337928,-1.2383174144493572,1.5642746913091752,0.34630777200151747,1.2450891667559825,1.530089020729065,0.0
173,1,173,1,-1,0.2879350755296326,-1.2383174144493572,1.5642746913091752,0.34630777200151747,1.2450891667559825,1.691087007522583,0.0
174,1,174,1,-1,0.5527102908591763,-1.2383174144493572,1.5642746913091752,0.34630777200151747,1.2450891667559825,1.8950843811035156,0.0
175,1,175,-1,1,0.5553076210886965,-0.7973930719627693,1.5642746913091752,0.34630777200151747,1.2450891667559825,3.5091075897216797,0.0
176,1,176,-1,1,2.1902955996149007,-0.7973930719627693,1.5642746913091752,0.34630777200151747,1.2450891667559825,7.1398444175720215,0.0
177,1,177,1,1,0.8420117843629332,-1.2383174144493572,1.5642746913091752,0.34630777200151747,1.2450891667559825,1.6980868577957153,0.0
178,1,178,1,1,1.4250478972965228,-1.2383174144493572,1.5642746913091752,0.34630777200151747,1.2450891667559825,2.068082094192505,0.0
179,1,179,-1,-1,-1.3351607200962996,-0.7973930719627693,1.5642746913091752,0.34630777200151747,1.2450891667559825,3.7010936737060547,0.0
180,1,180,1,1,0.04429146774682968,-1.2383174144493572,1.5642746913091752,0.34630777200151747,1.2450891667559825,1.4170893430709839,0.0
181,1,181,1,-1,-0.9343076757409436,-1.2383174144493572,1.5642746913091752,0.34630777200151747,1.2450891667559825,2.070082187652588,0.0
182,1,182,1,1,0.022743716593685015,-1.2383174144493572,1.5642746913091752,0.34630777200151747,1.2450891667559825,2.1840806007385254,0.0
183,1,183,1,-1,-1.2358992548850727,-1.2383174144493572,1.5642746913091752,0.34630777200151747,1.2450891667559825,2.279081344604492,0.0
184,1,184,1,1,1.3403631612972382,-1.2383174144493572,1.5642746913091752,0.34630777200151747,1.2450891667559825,2.768104314804077,0.0
185,1,185,1,1,3.0895879530126984,-1.2383174144493572,1.5642746913091752,0.34630777200151747,1.2450891667559825,2.1260814666748047,0.0
186,1,186,-1,-1,-0.2767174321548238,-0.7973930719627693,1.5642746913091752,0.34630777200151747,1.2450891667559825,3.0781188011169434,0.0
187,1,187,1,1,-0.1489008654489523,-1.2383174144493572,1.5642746913091752,0.34630777200151747,1.2450891667559825,1.3950892686843872,0.0
188,1,188,-1,1,-0.03602044624673306,-0.7973930719627693,1.5642746913091752,0.34630777200151747,1.2450891667559825,2.3510847091674805,0.0
189,1,189,-1,-1,-1.811170917402037,-0.7973930719627693,1.5642746913091752,0.34630777200151747,1.2450891667559825,2.163080930709839,0.0
190,1,190,1,-1,-0.05325800136813541,-1.2383174144493572,1.5642746913091752,0.34630777200151747,1.2450891667559825,2.115081548690796,0.0
191,1,191,-1,-1,-0.44606096815648777,-0.7973930719627693,1.5642746913091752,0.34630777200151747,1.2450891667559825,2.259080410003662,0.0
192,1,192,-1,1,2.3303194153355467,-0.7973930719627693,1.5642746913091752,0.34630777200151747,1.2450891667559825,3.435112953186035,0.0
193,1,193,1,-1,-1.2884853337999986,-1.2383174144493572,1.5642746913091752,0.34630777200151747,1.2450891667559825,2.3150830268859863,0.0
194,1,194,-1,-1,-2.868170521436681,-0.7973930719627693,1.5642746913091752,0.34630777200151747,1.2450891667559825,1.4520894289016724,0.0
195,1,195,-1,1,0.4936048823760102,-0.7973930719627693,1.5642746913091752,0.34630777200151747,1.2450891667559825,2.981114387512207,0.0
196,1,196,-1,1,0.33005042503400683,-0.7973930719627693,1.5642746913091752,0.34630777200151747,1.2450891667559825,2.3200833797454834,0.0
197,1,197,1,1,1.1697913544136225,-1.2383174144493572,1.5642746913091752,0.34630777200151747,1.2450891667559825,1.5230891704559326,0.0
198,1,198,-1,1,0.9559092622272808,-0.7973930719627693,1.5642746913091752,0.34630777200151747,1.2450891667559825,2.27108097076416,0.0
199,1,199,-1,-1,-2.1421981521590183,-0.7973930719627693,1.5642746913091752,0.34630777200151747,1.2450891667559825,2.1350812911987305,0.0
200,1,200,-1,1,1.4014696252438417,-0.7973930719627693,1.5642746913091752,0.34630777200151747,1.2450891667559825,3.1711230278015137,0.0
201,1,201,1,-1,-0.35156076794158797,-1.2383174144493572,1.5642746913091752,0.34630777200151747,1.2450891667559825,2.734102725982666,0.0
202,1,202,-1,-1,-1.4418414441244234,-0.7973930719627693,1.5642746913091752,0.34630777200151747,1.2450891667559825,1.6590874195098877,0.0
203,1,203,-1,1,1.008984379222817,-0.7973930719627693,1.5642746913091752,0.34630777200151747,1.2450891667559825,3.9160780906677246,0.0
204,1,204,1,-1,-2.2662989194574426,-1.2383174144493572,1.5642746913091752,0.34630777200151747,1.2450891667559825,2.024082660675049,0.0
205,1,205,-1,1,-0.4043191326122135,-0.7973930719627693,1.5642746913091752,0.34630777200151747,1.2450891667559825,3.9190778732299805,0.0
206,1,206,-1,-1,1.00369109739394,-0.7973930719627693,1.5642746913091752,0.34630777200151747,1.2450891667559825,3.802086353302002,0.0
207,1,207,1,-1,-2.5540934053245077,-1.2383174144493572,1.5642746913091752,0.34630777200151747,1.2450891667559825,1.5200891494750977,0.0
208,1,208,-1,1,2.573851828315558,-0.7973930719627693,1.5642746913091752,0.34630777200151747,1.2450891667559825,1.6420875787734985,0.0
209,1,209,1,1,0.27293151665758797,-1.2383174144493572,1.5642746913091752,0.34630777200151747,1.2450891667559825,1.783085823059082,0.0
210,1,210,-1,-1,-2.784720301839704,-0.7973930719627693,1.5642746913091752,0.34630777200151747,1.2450891667559825,1.5140892267227173,0.0
211,1,211,1,-1,-2.982559933923632,-1.2383174144493572,1.5642746913091752,0.34630777200151747,1.2450891667559825,2.9031105041503906,0.0
212,1,212,1,1,0.5796823735703274,-1.2383174144493572,1.5642746913091752,0.34630777200151747,1.2450891667559825,2.465090274810791,0.0
213,1,213,-1,1,-0.3266194877870181,-0.7973930719627693,1.5642746913091752,0.34630777200151747,1.2450891667559825,1.8230853080749512,0.0
214,1,214,1,1,0.44092712568802717,-1.2383174144493572,1.5642746913091752,0.34630777200151747,1.2450891667559825,1.8670847415924072,0.0
215,1,215,1,1,0.7004026484700481,-1.2383174144493572,1.5642746913091752,0.34630777200151747,1.2450891667559825,1.6050881147384644,0.0
216,1,216,-1,1,1.0415846778309454,-0.7973930719627693,1.5642746913091752,0.34630777200151747,1.2450891667559825,1.6740871667861938,1.0
217,1,217,1,-1,-0.3860858605382754,-1.2383174144493572,1.5642746913091752,0.34630777200151747,1.2450891667559825,1.7720859050750732,0.0
218,1,218,1,1,2.7987884286260916,-1.2383174144493572,1.5642746913091752,0.34630777200151747,1.2450891667559825,4.433040618896484,0.0
219,1,219,1,-1,-1.2741459118159484,-1.2383174144493572,1.5642746913091752,0.34630777200151747,1.2450891667559825,2.774104595184326,0.0
220,1,220,1,1,1.942713111516286,-1.2383174144493572,1.5642746913091752,0.34630777200151747,1.2450891667559825,1.6200878620147705,0.0
221,1,221,-1,-1,-0.7985247968361456,-0.7973930719627693,1.5642746913091752,0.34630777200151747,1.2450891667559825,2.0280826091766357,0.0
222,1,222,-1,1,1.8017622633420407,-0.7973930719627693,1.5642746913091752,0.34630777200151747,1.2450891667559825,2.8111062049865723,0.0
223,1,223,-1,-1,0.49843494900907315,-0.7973930719627693,1.5642746913091752,0.34630777200151747,1.2450891667559825,2.70310115814209,0.0
224,1,224,-1,1,2.2879812312930423,-0.7973930719627693,1.5642746913091752,0.34630777200151747,1.2450891667559825,2.8551082611083984,0.0
225,1,225,1,-1,1.2491004583336047,-1.2383174144493572,1.5642746913091752,0.34630777200151747,1.2450891667559825,1.4650894403457642,0.0
226,1,226,-1,1,2.869150084791078,-0.7973930719627693,1.5642746913091752,0.34630777200151747,1.2450891667559825,1.8410850763320923,0.0
227,1,227,1,1,-1.0392496692666624,-1.2383174144493572,1.5642746913091752,0.34630777200151747,1.2450891667559825,1.4590893983840942,0.0
228,1,228,-1,1,0.3939844786454567,-0.7973930719627693,1.5642746913091752,0.34630777200151747,1.2450891667559825,1.6130880117416382,0.0
229,1,229,-1,1,0.8954090705027933,-0.7973930719627693,1.5642746913091752,0.34630777200151747,1.2450891667559825,3.5731029510498047,0.0
230,1,230,-1,1,0.5474782047015023,-0.7973930719627693,1.5642746913091752,0.34630777200151747,1.2450891667559825,2.8811097145080566,0.0
231,1,231,1,1,1.9780494058580778,-1.2383174144493572,1.5642746913091752,0.34630777200151747,1.2450891667559825,1.9390838146209717,0.0
232,1,232,-1,-1,-0.5621443958362929,-0.7973930719627693,1.5642746913091752,0.34630777200151747,1.2450891667559825,3.9990720748901367,0.0
233,1,233,1,-1,-1.0017896208206283,-1.2383174144493572,1.5642746913091752,0.34630777200151747,1.2450891667559825,1.6020880937576294,0.0
234,1,234,1,1,-0.11482050741109684,-1.2383174144493572,1.5642746913091752,0.34630777200151747,1.2450891667559825,1.9350838661193848,0.0
235,1,235,1,1,-0.9407575634479264,-1.2383174144493572,1.5642746913091752,0.34630777200151747,1.2450891667559825,2.727102279663086,0.0
236,1,236,-1,1,1.4613481999678604,-0.7973930719627693,1.5642746913091752,0.34630777200151747,1.2450891667559825,5.024997711181641,0.0
237,1,237,1,1,-0.6878130553151784,-1.2383174144493572,1.5642746913091752,0.34630777200151747,1.2450891667559825,1.6550874710083008,0.0
238,1,238,-1,1,1.5900917195515016,-0.7973930719627693,1.5642746913091752,0.34630777200151747,1.2450891667559825,2.1430811882019043,0.0
239,1,239,1,1,1.6744346614156977,-1.2383174144493572,1.5642746913091752,0.34630777200151747,1.2450891667559825,2.1260814666748047,0.0
240,1,240,-1,-1,-3.1015869261625255,-0.7973930719627693,1.5642746913091752,0.34630777200151747,1.2450891667559825,2.446089267730713,0.0
241,1,241,-1,1,1.2240254174674907,-0.7973930719627693,1.5642746913091752,0.34630777200151747,1.2450891667559825,3.479109764099121,0.0
242,1,242,1,1,0.810435538305932,-1.2383174144493572,1.5642746913091752,0.34630777200151747,1.2450891667559825,2.440088987350464,1.0
243,1,243,-1,-1,-1.7172021582053567,-0.7973930719627693,1.5642746913091752,0.34630777200151747,1.2450891667559825,2.8861098289489746,0.0
244,1,244,1,1,3.1499725282418423,-1.2383174144493572,1.5642746913091752,0.34630777200151747,1.2450891667559825,1.5760884284973145,0.0
245,1,245,-1,1,1.548849878926541,-0.7973930719627693,1.5642746913091752,0.34630777200151747,1.2450891667559825,1.6720871925354004,0.0
246,1,246,1,1,0.4302899106278997,-1.2383174144493572,1.5642746913091752,0.34630777200151747,1.2450891667559825,2.4230880737304688,0.0
247,1,247,-1,-1,0.5790096798715814,-0.7973930719627693,1.5642746913091752,0.34630777200151747,1.2450891667559825,2.4110875129699707,1.0
248,1,248,1,1,-0.03353758348349056,-1.2383174144493572,1.5642746913091752,0.34630777200151747,1.2450891667559825,1.6830871105194092,0.0
249,1,249,1,1,2.3464651545549238,-1.2383174144493572,1.5642746913091752,0.34630777200151747,1.2450891667559825,1.6360876560211182,0.0
250,1,250,-1,1,1.1203584439554763,-0.7973930719627693,1.5642746913091752,0.34630777200151747,1.2450891667559825,4.890007495880127,0.0
251,1,251,-1,1,1.8269484553844095,-0.7973930719627693,1.5642746913091752,0.34630777200151747,1.2450891667559825,1.5050894021987915,0.0
252,1,252,1,-1,-2.097715416090822,-1.2383174144493572,1.5642746913091752,0.34630777200151747,1.2450891667559825,1.411089301109314,0.0
253,1,253,1,-1,-0.26858797604142626,-1.2383174144493572,1.5642746913091752,0.34630777200151747,1.2450891667559825,3.231125831604004,0.0
254,1,254,1,-1,-1.616085506998298,-1.2383174144493572,1.5642746913091752,0.34630777200151747,1.2450891667559825,1.786085844039917,0.0
255,1,255,-1,1,1.7469676596799055,-0.7973930719627693,1.5642746913091752,0.34630777200151747,1.2450891667559825,2.4120876789093018,0.0
256,1,256,1,1,1.4512353143897252,-1.2383174144493572,1.5642746913091752,0.34630777200151747,1.2450891667559825,1.5830883979797363,0.0
257,1,257,1,-1,-1.0644637382387048,-1.2383174144493572,1.5642746913091752,0.34630777200151747,1.2450891667559825,2.0510823726654053,0.0
258,1,258,1,-1,-1.550590755145587,-1.2383174144493572,1.5642746913091752,0.34630777200151747,1.2450891667559825,1.7590861320495605,0.0
259,1,259,1,-1,-1.0352929264839574,-1.2383174144493572,1.5642746913091752,0.34630777200151747,1.2450891667559825,1.780085802078247,0.0
260,1,260,1,-1,0.12068368325806733,-1.2383174144493572,1.5642746913091752,0.34630777200151747,1.2450891667559825,3.1261210441589355,0.0
261,1,261,1,1,0.30176753739043083,-1.2383174144493572,1.5642746913091752,0.34630777200151747,1.2450891667559825,1.9170840978622437,0.0
262,1,262,1,1,1.941255228354267,-1.2383174144493572,1.5642746913091752,0.34630777200151747,1.2450891667559825,2.0910818576812744,0.0
263,1,263,1,1,-0.6752142169684165,-1.2383174144493572,1.5642746913091752,0.34630777200151747,1.2450891667559825,1.6940869092941284,0.0
264,1,264,-1,-1,-1.757736716623391,-0.7973930719627693,1.5642746913091752,0.34630777200151747,1.2450891667559825,2.056082248687744,0.0
265,1,265,-1,-1,-0.9669426864295358,-0.7973930719627693,1.5642746913091752,0.34630777200151747,1.2450891667559825,2.961113452911377,0.0
266,1,266,-1,1,0.6056571740510951,-0.7973930719627693,1.5642746913091752,0.34630777200151747,1.2450891667559825,1.5910882949829102,0.0
267,1,267,1,1,1.6876298875860478,-1.2383174144493572,1.5642746913091752,0.34630777200151747,1.2450891667559825,1.5090893507003784,0.0
268,1,268,-1,1,1.258816655685854,-0.7973930719627693,1.5642746913091752,0.34630777200151747,1.2450891667559825,2.0780820846557617,0.0
269,1,269,1,-1,-0.9637047447169033,-1.2383174144493572,1.5642746913091752,0.34630777200151747,1.2450891667559825,2.441089153289795,0.0
270,1,270,1,-1,-3.2152524306823365,-1.2383174144493572,1.5642746913091752,0.34630777200151747,1.2450891667559825,1.8370851278305054,0.0
271,1,271,1,1,1.0934499539645746,-1.2383174144493572,1.5642746913091752,0.34630777200151747,1.2450891667559825,1.7550861835479736,0.0
272,1,272,1,1,2.219689449247439,-1.2383174144493572,1.5642746913091752,0.34630777200151747,1.2450891667559825,2.685100555419922,0.0
273,1,273,-1,-1,-1.2945511241779897,-0.7973930719627693,1.5642746913091752,0.34630777200151747,1.2450891667559825,1.555088758468628,0.0
274,1,274,1,-1,-1.0510263914460192,-1.2383174144493572,1.5642746913091752,0.34630777200151747,1.2450891667559825,1.7090867757797241,0.0
275,1,275,1,-1,-1.112461629564618,-1.2383174144493572,1.5642746913091752,0.34630777200151747,1.2450891667559825,2.6070966720581055,0.0
276,1,276,-1,-1,-1.4558274148511312,-0.7973930719627693,1.5642746913091752,0.34630777200151747,1.2450891667559825,2.481091022491455,0.0
277,1,277,-1,-1,0.13687071131644002,-0.7973930719627693,1.5642746913091752,0.34630777200151747,1.2450891667559825,2.2820816040039062,0.0
278,1,278,1,1,1.7771092551512055,-1.2383174144493572,1.5642746913091752,0.34630777200151747,1.2450891667559825,4.403042793273926,0.0
279,1,279,1,1,1.6069384700128655,-1.2383174144493572,1.5642746913091752,0.34630777200151747,1.2450891667559825,1.6670873165130615,0.0
280,1,280,1,1,0.796353046225903,-1.2383174144493572,1.5642746913091752,0.34630777200151747,1.2450891667559825,1.508089303970337,0.0
281,1,281,1,1,1.1764885605144524,-1.2383174144493572,1.5642746913091752,0.34630777200151747,1.2450891667559825,3.4751100540161133,0.0
282,1,282,1,-1,0.09601250197196376,-1.2383174144493572,1.5642746913091752,0.34630777200151747,1.2450891667559825,1.7330864667892456,0.0
283,1,283,1,1,0.8013217287113421,-1.2383174144493572,1.5642746913091752,0.34630777200151747,1.2450891667559825,2.1750807762145996,0.0
284,1,284,1,-1,0.0529963974004406,-1.2383174144493572,1.5642746913091752,0.34630777200151747,1.2450891667559825,1.5880882740020752,0.0
285,1,285,-1,1,0.9522699832612238,-0.7973930719627693,1.5642746913091752,0.34630777200151747,1.2450891667559825,1.8640847206115723,0.0
286,1,286,-1,1,2.167132960226992,-0.7973930719627693,1.5642746913091752,0.34630777200151747,1.2450891667559825,1.644087553024292,0.0
287,1,287,-1,1,2.524599048675194,-0.7973930719627693,1.5642746913091752,0.34630777200151747,1.2450891667559825,2.2380800247192383,0.0
288,1,288,-1,-1,-1.6188183964473124,-0.7973930719627693,1.5642746913091752,0.34630777200151747,1.2450891667559825,1.783085823059082,0.0
289,1,289,1,-1,-0.16946073802940587,-1.2383174144493572,1.5642746913091752,0.34630777200151747,1.2450891667559825,1.414089322090149,0.0
290,1,290,1,1,1.1572998959924128,-1.2383174144493572,1.5642746913091752,0.34630777200151747,1.2450891667559825,1.7930856943130493,0.0
291,1,291,1,1,1.4984439347203102,-1.2383174144493572,1.5642746913091752,0.34630777200151747,1.2450891667559825,2.1390812397003174,0.0
292,1,292,1,-1,-2.0467841274548357,-1.2383174144493572,1.5642746913091752,0.34630777200151747,1.2450891667559825,2.543093681335449,0.0
293,1,293,-1,1,1.1514814140979825,-0.7973930719627693,1.5642746913091752,0.34630777200151747,1.2450891667559825,1.710086703300476,0.0
294,1,294,-1,1,0.24133865073650485,-0.7973930719627693,1.5642746913091752,0.34630777200151747,1.2450891667559825,1.4540894031524658,0.0
295,1,295,1,-1,-2.3335085515432965,-1.2383174144493572,1.5642746913091752,0.34630777200151747,1.2450891667559825,1.8190853595733643,0.0
296,1,296,1,1,0.42658408284343086,-1.2383174144493572,1.5642746913091752,0.34630777200151747,1.2450891667559825,1.8060855865478516,0.0
297,1,297,1,1,1.3498233453530242,-1.2383174144493572,1.5642746913091752,0.34630777200151747,1.2450891667559825,2.0480823516845703,0.0
298,1,298,-1,-1,-1.2451146466287921,-0.7973930719627693,1.5642746913091752,0.34630777200151747,1.2450891667559825,2.1740808486938477,0.0
299,1,299,-1,1,2.654795598571649,-0.7973930719627693,1.5642746913091752,0.34630777200151747,1.2450891667559825,1.5500887632369995,0.0
300,1,300,-1,1,3.0050445771946763,-0.7973930719627693,1.5642746913091752,0.34630777200151747,1.2450891667559825,1.9850832223892212,1.0
301,1,301,-1,-1,-0.0813312804823294,-0.7973930719627693,1.5642746913091752,0.34630777200151747,1.2450891667559825,1.6120879650115967,0.0
302,1,302,-1,-1,-1.8327590271953724,-0.7973930719627693,1.5642746913091752,0.34630777200151747,1.2450891667559825,4.081066131591797,0.0
303,1,303,-1,1,0.5739185306758133,-0.7973930719627693,1.5642746913091752,0.34630777200151747,1.2450891667559825,2.246079921722412,0.0
304,1,304,1,-1,-0.5273881409190109,-1.2383174144493572,1.5642746913091752,0.34630777200151747,1.2450891667559825,2.059082269668579,0.0
305,1,305,-1,1,-0.5118940945416832,-0.7973930719627693,1.5642746913091752,0.34630777200151747,1.2450891667559825,1.50408935546875,0.0
306,1,306,1,1,1.8902783546769553,-1.2383174144493572,1.5642746913091752,0.34630777200151747,1.2450891667559825,1.669087290763855,0.0
307,1,307,1,1,1.1945218528082249,-1.2383174144493572,1.5642746913091752,0.34630777200151747,1.2450891667559825,1.381089210510254,0.0
308,1,308,1,1,-0.6226696162939664,-1.2383174144493572,1.5642746913091752,0.34630777200151747,1.2450891667559825,2.0300827026367188,0.0
309,1,309,1,1,3.0937270525523437,-1.2383174144493572,1.5642746913091752,0.34630777200151747,1.2450891667559825,1.9110841751098633,0.0
310,1,310,1,1,0.5983081097732523,-1.2383174144493572,1.5642746913091752,0.34630777200151747,1.2450891667559825,3.013115882873535,0.0
311,1,311,1,-1,-0.6298992033683312,-1.2383174144493572,1.5642746913091752,0.34630777200151747,1.2450891667559825,1.6380876302719116,0.0
312,1,312,-1,-1,-3.213228711145731,-0.7973930719627693,1.5642746913091752,0.34630777200151747,1.2450891667559825,1.7510862350463867,0.0
313,1,313,-1,-1,-1.048483618065035,-0.7973930719627693,1.5642746913091752,0.34630777200151747,1.2450891667559825,2.495091438293457,0.0
314,1,314,1,-1,-3.0385860127193927,-1.2383174144493572,1.5642746913091752,0.34630777200151747,1.2450891667559825,1.6770871877670288,0.0
315,1,315,1,-1,-1.5563276141319893,-1.2383174144493572,1.5642746913091752,0.34630777200151747,1.2450891667559825,2.530093193054199,0.0
316,1,316,-1,1,1.633693055541659,-0.7973930719627693,1.5642746913091752,0.34630777200151747,1.2450891667559825,1.735086441040039,0.0
317,1,317,-1,-1,-1.2587613526800907,-0.7973930719627693,1.5642746913091752,0.34630777200151747,1.2450891667559825,3.327120780944824,0.0
318,1,318,1,-1,-1.216389119608581,-1.2383174144493572,1.5642746913091752,0.34630777200151747,1.2450891667559825,2.75010347366333,0.0
319,1,319,-1,1,-0.12127376441594873,-0.7973930719627693,1.5642746913091752,0.34630777200151747,1.2450891667559825,2.1000816822052,0.0
320,1,320,1,1,0.5320152730228138,-1.2383174144493572,1.5642746913091752,0.34630777200151747,1.2450891667559825,3.5941014289855957,0.0
321,1,321,1,1,0.4529526534296251,-1.2383174144493572,1.5642746913091752,0.34630777200151747,1.2450891667559825,1.8420851230621338,0.0
322,1,322,1,-1,-1.5463487470454116,-1.2383174144493572,1.5642746913091752,0.34630777200151747,1.2450891667559825,3.2541260719299316,0.0
323,1,323,1,1,1.6619113977158106,-1.2383174144493572,1.5642746913091752,0.34630777200151747,1.2450891667559825,1.8540849685668945,0.0
324,1,324,1,1,0.7600036850897505,-1.2383174144493572,1.5642746913091752,0.34630777200151747,1.2450891667559825,1.8030855655670166,0.0
325,1,325,1,-1,-1.448387260785549,-1.2383174144493572,1.5642746913091752,0.34630777200151747,1.2450891667559825,2.3570852279663086,0.0
326,1,326,-1,-1,-1.8370159925424714,-0.7973930719627693,1.5642746913091752,0.34630777200151747,1.2450891667559825,1.9880831241607666,0.0
327,1,327,1,-1,-1.5880852159819323,-1.2383174144493572,1.5642746913091752,0.34630777200151747,1.2450891667559825,2.6010966300964355,0.0
328,1,328,-1,-1,-0.5229871478492721,-0.7973930719627693,1.5642746913091752,0.34630777200151747,1.2450891667559825,2.3260836601257324,0.0
329,1,329,1,-1,-1.6827027425494898,-1.2383174144493572,1.5642746913091752,0.34630777200151747,1.2450891667559825,2.244079828262329,0.0
330,1,330,1,-1,-0.49149422609733207,-1.2383174144493572,1.5642746913091752,0.34630777200151747,1.2450891667559825,1.4820895195007324,0.0
331,1,331,-1,-1,-1.9772906124666372,-0.7973930719627693,1.5642746913091752,0.34630777200151747,1.2450891667559825,2.2280800342559814,0.0
332,1,332,1,-1,-1.0432765805818789,-1.2383174144493572,1.5642746913091752,0.34630777200151747,1.2450891667559825,5.696949005126953,0.0
333,1,333,1,1,2.470630179476879,-1.2383174144493572,1.5642746913091752,0.34630777200151747,1.2450891667559825,2.0310826301574707,0.0
334,1,334,-1,1,0.6235250669369811,-0.7973930719627693,1.5642746913091752,0.34630777200151747,1.2450891667559825,2.153080940246582,0.0
335,1,335,-1,-1,-1.9790700528192806,-0.7973930719627693,1.5642746913091752,0.34630777200151747,1.2450891667559825,2.952112913131714,0.0
336,1,336,1,-1,-0.7819353632736634,-1.2383174144493572,1.5642746913091752,0.34630777200151747,1.2450891667559825,1.4580894708633423,0.0
337,1,337,1,-1,-0.14166943717854574,-1.2383174144493572,1.5642746913091752,0.34630777200151747,1.2450891667559825,4.718019962310791,0.0
338,1,338,1,1,1.1471603807332382,-1.2383174144493572,1.5642746913091752,0.34630777200151747,1.2450891667559825,2.111081600189209,0.0
339,1,339,1,-1,-2.1320786103719938,-1.2383174144493572,1.5642746913091752,0.34630777200151747,1.2450891667559825,1.4430893659591675,0.0
340,1,340,1,1,3.5065716961477396,-1.2383174144493572,1.5642746913091752,0.34630777200151747,1.2450891667559825,3.691094398498535,0.0
341,1,341,1,1,-0.903842074288236,-1.2383174144493572,1.5642746913091752,0.34630777200151747,1.2450891667559825,2.0490822792053223,0.0
342,1,342,-1,1,-0.979533682547264,-0.7973930719627693,1.5642746913091752,0.34630777200151747,1.2450891667559825,1.6350877285003662,0.0
343,1,343,-1,-1,-1.6130007782846314,-0.7973930719627693,1.5642746913091752,0.34630777200151747,1.2450891667559825,2.8541083335876465,0.0
344,1,344,1,-1,-0.5410582899649061,-1.2383174144493572,1.5642746913091752,0.34630777200151747,1.2450891667559825,1.5810884237289429,0.0
345,1,345,-1,-1,-1.1030024901056272,-0.7973930719627693,1.5642746913091752,0.34630777200151747,1.2450891667559825,2.530093193054199,0.0
346,1,346,-1,-1,0.08561504365784378,-0.7973930719627693,1.5642746913091752,0.34630777200151747,1.2450891667559825,2.256080389022827,0.0
347,1,347,1,-1,0.6757429525168828,-1.2383174144493572,1.5642746913091752,0.34630777200151747,1.2450891667559825,1.8070855140686035,0.0
348,1,348,-1,-1,0.6692150337628546,-0.7973930719627693,1.5642746913091752,0.34630777200151747,1.2450891667559825,1.4060893058776855,0.0
349,1,349,1,1,-0.27541289472290553,-1.2383174144493572,1.5642746913091752,0.34630777200151747,1.2450891667559825,1.8700847625732422,0.0
350,1,350,-1,-1,-1.8573447987025902,-0.7973930719627693,1.5642746913091752,0.34630777200151747,1.2450891667559825,1.82808518409729,0.0
351,1,351,1,-1,0.12457828139090799,-1.2383174144493572,1.5642746913091752,0.34630777200151747,1.2450891667559825,1.547088861465454,0.0
352,1,352,-1,1,0.2006137551282008,-0.7973930719627693,1.5642746913091752,0.34630777200151747,1.2450891667559825,3.1611227989196777,0.0
353,1,353,-1,-1,-1.0190537470490282,-0.7973930719627693,1.5642746913091752,0.34630777200151747,1.2450891667559825,1.6070880889892578,0.0
354,1,354,1,1,0.8787486395397996,-1.2383174144493572,1.5642746913091752,0.34630777200151747,1.2450891667559825,3.0811190605163574,0.0
355,1,355,-1,1,0.8884957277834609,-0.7973930719627693,1.5642746913091752,0.34630777200151747,1.2450891667559825,3.8970794677734375,0.0
356,1,356,-1,1,-0.2181746098409627,-0.7973930719627693,1.5642746913091752,0.34630777200151747,1.2450891667559825,2.8531084060668945,0.0
357,1,357,1,-1,-2.168714128500711,-1.2383174144493572,1.5642746913091752,0.34630777200151747,1.2450891667559825,1.5940881967544556,0.0
358,1,358,-1,-1,-0.6986797814511005,-0.7973930719627693,1.5642746913091752,0.34630777200151747,1.2450891667559825,1.4970895051956177,0.0
359,1,359,1,1,1.6531684257371264,-1.2383174144493572,1.5642746913091752,0.34630777200151747,1.2450891667559825,2.498091697692871,0.0
360,1,360,1,1,0.31375232205580383,-1.2383174144493572,1.5642746913091752,0.34630777200151747,1.2450891667559825,1.4000892639160156,0.0
361,1,361,-1,1,1.0243038283624322,-0.7973930719627693,1.5642746913091752,0.34630777200151747,1.2450891667559825,3.264125347137451,0.0
362,1,362,-1,-1,-0.6785256464922164,-0.7973930719627693,1.5642746913091752,0.34630777200151747,1.2450891667559825,2.8941102027893066,0.0
363,1,363,1,1,-0.16606227281126973,-1.2383174144493572,1.5642746913091752,0.34630777200151747,1.2450891667559825,1.790085792541504,0.0
364,1,364,1,-1,-0.8421743394132645,-1.2383174144493572,1.5642746913091752,0.34630777200151747,1.2450891667559825,1.8120853900909424,0.0
365,1,365,-1,1,0.01958980927355536,-0.7973930719627693,1.5642746913091752,0.34630777200151747,1.2450891667559825,2.2350800037384033,0.0
366,1,366,-1,-1,-2.538449144041561,-0.7973930719627693,1.5642746913091752,0.34630777200151747,1.2450891667559825,2.0520823001861572,0.0
367,1,367,1,-1,-2.343190962168892,-1.2383174144493572,1.5642746913091752,0.34630777200151747,1.2450891667559825,1.9380838871002197,0.0
368,1,368,1,-1,-1.7554206048989072,-1.2383174144493572,1.5642746913091752,0.34630777200151747,1.2450891667559825,3.7710886001586914,0.0
369,1,369,-1,-1,-1.3537950941724275,-0.7973930719627693,1.5642746913091752,0.34630777200151747,1.2450891667559825,1.9590835571289062,0.0
370,1,370,1,1,0.2418141478717657,-1.2383174144493572,1.5642746913091752,0.34630777200151747,1.2450891667559825,2.266080856323242,0.0
371,1,371,-1,-1,0.4729084490352087,-0.7973930719627693,1.5642746913091752,0.34630777200151747,1.2450891667559825,1.5220891237258911,0.0
372,1,372,-1,-1,-1.305166374954064,-0.7973930719627693,1.5642746913091752,0.34630777200151747,1.2450891667559825,2.1720807552337646,0.0
373,1,373,1,1,1.8289669772588129,-1.2383174144493572,1.5642746913091752,0.34630777200151747,1.2450891667559825,1.4910894632339478,0.0
374,1,374,-1,-1,-0.8711961922123793,-0.7973930719627693,1.5642746913091752,0.34630777200151747,1.2450891667559825,6.225910663604736,0.0
375,1,375,1,-1,-1.5461038779323018,-1.2383174144493572,1.5642746913091752,0.34630777200151747,1.2450891667559825,1.441089391708374,0.0
376,1,376,1,1,1.0743775107063902,-1.2383174144493572,1.5642746913091752,0.34630777200151747,1.2450891667559825,2.8251070976257324,0.0
377,1,377,1,-1,-1.1254752040546094,-1.2383174144493572,1.5642746913091752,0.34630777200151747,1.2450891667559825,2.2930822372436523,0.0
378,1,378,-1,1,2.0808048280606175,-0.7973930719627693,1.5642746913091752,0.34630777200151747,1.2450891667559825,1.673087239265442,0.0
379,1,379,1,-1,-0.10695837527762986,-1.2383174144493572,1.5642746913091752,0.34630777200151747,1.2450891667559825,1.7310864925384521,0.0
380,1,380,-1,1,2.3222182225918533,-0.7973930719627693,1.5642746913091752,0.34630777200151747,1.2450891667559825,4.311049461364746,0.0
381,1,381,-1,1,2.4765916028275314,-0.7973930719627693,1.5642746913091752,0.34630777200151747,1.2450891667559825,2.016082763671875,0.0
382,1,382,1,1,0.24477028485151875,-1.2383174144493572,1.5642746913091752,0.34630777200151747,1.2450891667559825,1.3880892992019653,0.0
383,1,383,-1,-1,-0.7997434281326207,-0.7973930719627693,1.5642746913091752,0.34630777200151747,1.2450891667559825,1.9610835313796997,0.0
384,1,384,1,-1,-0.18074177147135673,-1.2383174144493572,1.5642746913091752,0.34630777200151747,1.2450891667559825,3.4721102714538574,0.0
385,1,385,-1,1,-0.1546019248425332,-0.7973930719627693,1.5642746913091752,0.34630777200151747,1.2450891667559825,2.0910818576812744,0.0
386,1,386,-1,-1,-2.300638842840999,-0.7973930719627693,1.5642746913091752,0.34630777200151747,1.2450891667559825,1.7980856895446777,0.0
387,1,387,1,1,1.6138152288193321,-1.2383174144493572,1.5642746913091752,0.34630777200151747,1.2450891667559825,5.179986476898193,0.0
388,1,388,-1,1,0.7280581687913439,-0.7973930719627693,1.5642746913091752,0.34630777200151747,1.2450891667559825,1.6610873937606812,0.0
389,1,389,-1,-1,-2.129716988297295,-0.7973930719627693,1.5642746913091752,0.34630777200151747,1.2450891667559825,2.0890817642211914,0.0
390,1,390,-1,-1,-1.6978897574020595,-0.7973930719627693,1.5642746913091752,0.34630777200151747,1.2450891667559825,1.9130841493606567,0.0
391,1,391,1,1,1.6113166910256216,-1.2383174144493572,1.5642746913091752,0.34630777200151747,1.2450891667559825,1.5190892219543457,0.0
392,1,392,1,1,2.86731609799892,-1.2383174144493572,1.5642746913091752,0.34630777200151747,1.2450891667559825,1.6370877027511597,0.0
393,1,393,-1,-1,-0.21205600818277415,-0.7973930719627693,1.5642746913091752,0.34630777200151747,1.2450891667559825,1.6010881662368774,0.0
394,1,394,1,1,0.8097022318560246,-1.2383174144493572,1.5642746913091752,0.34630777200151747,1.2450891667559825,3.1711230278015137,0.0
395,1,395,1,-1,-1.5734284705278576,-1.2383174144493572,1.5642746913091752,0.34630777200151747,1.2450891667559825,1.640087604522705,0.0
396,1,396,-1,-1,-0.9983823263027753,-0.7973930719627693,1.5642746913091752,0.34630777200151747,1.2450891667559825,1.7260864973068237,0.0
397,1,397,1,1,0.09496573018148713,-1.2383174144493572,1.5642746913091752,0.34630777200151747,1.2450891667559825,1.6540874242782593,0.0
398,1,398,-1,1,1.5016902008971074,-0.7973930719627693,1.5642746913091752,0.34630777200151747,1.2450891667559825,1.6640872955322266,0.0
399,1,399,1,-1,-0.5579294281360634,-1.2383174144493572,1.5642746913091752,0.34630777200151747,1.2450891667559825,1.6260877847671509,0.0
400,1,400,1,-1,-0.2982652268831646,-1.2383174144493572,1.5642746913091752,0.34630777200151747,1.2450891667559825,1.9430837631225586,0.0
401,1,401,-1,1,1.08537015715793,-0.7973930719627693,1.5642746913091752,0.34630777200151747,1.2450891667559825,1.8140854835510254,0.0
402,1,402,-1,1,-0.6710424994763047,-0.7973930719627693,1.5642746913091752,0.34630777200151747,1.2450891667559825,1.7060867547988892,0.0
403,1,403,1,1,-1.1318046403328363,-1.2383174144493572,1.5642746913091752,0.34630777200151747,1.2450891667559825,1.435089349746704,0.0
404,1,404,1,1,0.7992636779452893,-1.2383174144493572,1.5642746913091752,0.34630777200151747,1.2450891667559825,1.548088788986206,0.0
405,1,405,1,-1,-1.1333991190660797,-1.2383174144493572,1.5642746913091752,0.34630777200151747,1.2450891667559825,2.2220802307128906,0.0
406,1,406,1,1,1.465146813045614,-1.2383174144493572,1.5642746913091752,0.34630777200151747,1.2450891667559825,1.5890883207321167,0.0
407,1,407,-1,1,2.427166196938132,-0.7973930719627693,1.5642746913091752,0.34630777200151747,1.2450891667559825,2.8191065788269043,0.0
408,1,408,-1,-1,-1.4581828846180263,-0.7973930719627693,1.5642746913091752,0.34630777200151747,1.2450891667559825,2.461090087890625,0.0
409,1,409,1,1,2.153079348757216,-1.2383174144493572,1.5642746913091752,0.34630777200151747,1.2450891667559825,2.3890867233276367,0.0
410,1,410,-1,1,-0.23378704979807607,-0.7973930719627693,1.5642746913091752,0.34630777200151747,1.2450891667559825,1.8110854625701904,0.0
411,1,411,-1,-1,-1.2319318421945649,-0.7973930719627693,1.5642746913091752,0.34630777200151747,1.2450891667559825,1.4220893383026123,0.0
412,1,412,-1,-1,-0.9470594181345205,-0.7973930719627693,1.5642746913091752,0.34630777200151747,1.2450891667559825,2.6020965576171875,0.0
413,1,413,-1,-1,-0.6586286852214088,-0.7973930719627693,1.5642746913091752,0.34630777200151747,1.2450891667559825,6.323903560638428,0.0
414,1,414,1,1,1.4867089721098385,-1.2383174144493572,1.5642746913091752,0.34630777200151747,1.2450891667559825,2.021082878112793,0.0
415,1,415,1,-1,-1.224333778412312,-1.2383174144493572,1.5642746913091752,0.34630777200151747,1.2450891667559825,1.7990856170654297,0.0
416,1,416,1,1,-0.9086544477053302,-1.2383174144493572,1.5642746913091752,0.34630777200151747,1.2450891667559825,1.7560861110687256,0.0
417,1,417,-1,-1,-1.3527082932073993,-0.7973930719627693,1.5642746913091752,0.34630777200151747,1.2450891667559825,1.6840870380401611,0.0
418,1,418,-1,-1,-0.5802491331949293,-0.7973930719627693,1.5642746913091752,0.34630777200151747,1.2450891667559825,1.6140879392623901,0.0
419,1,419,1,-1,-1.9729089144858878,-1.2383174144493572,1.5642746913091752,0.34630777200151747,1.2450891667559825,1.3360891342163086,0.0
420,1,420,1,1,0.6888443572470994,-1.2383174144493572,1.5642746913091752,0.34630777200151747,1.2450891667559825,3.230125904083252,0.0
421,1,421,1,1,2.27794488255166,-1.2383174144493572,1.5642746913091752,0.34630777200151747,1.2450891667559825,6.944858551025391,0.0
422,1,422,1,1,2.137777549533106,-1.2383174144493572,1.5642746913091752,0.34630777200151747,1.2450891667559825,2.9201114177703857,0.0
423,1,423,1,1,3.155138502810719,-1.2383174144493572,1.5642746913091752,0.34630777200151747,1.2450891667559825,2.735102653503418,0.0
424,1,424,-1,-1,0.028213115208635564,-0.7973930719627693,1.5642746913091752,0.34630777200151747,1.2450891667559825,2.494091510772705,0.0
425,1,425,-1,-1,-0.5224530693652285,-0.7973930719627693,1.5642746913091752,0.34630777200151747,1.2450891667559825,2.3050827980041504,0.0
426,1,426,1,1,-0.09824326004025541,-1.2383174144493572,1.5642746913091752,0.34630777200151747,1.2450891667559825,2.0830819606781006,0.0
427,1,427,1,-1,0.6868524803724116,-1.2383174144493572,1.5642746913091752,0.34630777200151747,1.2450891667559825,1.6270878314971924,0.0
428,1,428,-1,1,2.875723327055228,-0.7973930719627693,1.5642746913091752,0.34630777200151747,1.2450891667559825,1.85708487033844,0.0
429,1,429,1,1,1.641851678233122,-1.2383174144493572,1.5642746913091752,0.34630777200151747,1.2450891667559825,2.2240800857543945,0.0
430,1,430,1,-1,-0.44034473065184176,-1.2383174144493572,1.5642746913091752,0.34630777200151747,1.2450891667559825,1.9960830211639404,0.0
431,1,431,-1,-1,-1.782213242667233,-0.7973930719627693,1.5642746913091752,0.34630777200151747,1.2450891667559825,1.9630835056304932,0.0
432,1,432,-1,1,0.6334092322717246,-0.7973930719627693,1.5642746913091752,0.34630777200151747,1.2450891667559825,2.3060827255249023,0.0
433,1,433,1,-1,-1.3132145899253818,-1.2383174144493572,1.5642746913091752,0.34630777200151747,1.2450891667559825,2.266080856323242,0.0
434,1,434,1,1,3.398915096445013,-1.2383174144493572,1.5642746913091752,0.34630777200151747,1.2450891667559825,2.3170833587646484,0.0
435,1,435,1,1,1.2180969883079327,-1.2383174144493572,1.5642746913091752,0.34630777200151747,1.2450891667559825,1.441089391708374,0.0
436,1,436,1,1,0.7239538662599474,-1.2383174144493572,1.5642746913091752,0.34630777200151747,1.2450891667559825,1.4570894241333008,0.0
437,1,437,1,-1,0.1743036034601575,-1.2383174144493572,1.5642746913091752,0.34630777200151747,1.2450891667559825,2.024082660675049,0.0
438,1,438,-1,-1,-1.6623096648552753,-0.7973930719627693,1.5642746913091752,0.34630777200151747,1.2450891667559825,1.6200878620147705,0.0
439,1,439,1,-1,0.34476606341642824,-1.2383174144493572,1.5642746913091752,0.34630777200151747,1.2450891667559825,3.696094036102295,0.0
440,1,440,-1,-1,-2.054505490659615,-0.7973930719627693,1.5642746913091752,0.34630777200151747,1.2450891667559825,1.9840831756591797,0.0
441,1,441,1,-1,-1.272524859443578,-1.2383174144493572,1.5642746913091752,0.34630777200151747,1.2450891667559825,1.5690885782241821,0.0
442,1,442,-1,1,1.7915830763152418,-0.7973930719627693,1.5642746913091752,0.34630777200151747,1.2450891667559825,2.3610854148864746,0.0
443,1,443,1,-1,-1.9418084765295303,-1.2383174144493572,1.5642746913091752,0.34630777200151747,1.2450891667559825,1.5930882692337036,0.0
444,1,444,-1,1,1.6093717868181447,-0.7973930719627693,1.5642746913091752,0.34630777200151747,1.2450891667559825,1.7670860290527344,0.0
445,1,445,1,-1,-0.44140395219743467,-1.2383174144493572,1.5642746913091752,0.34630777200151747,1.2450891667559825,2.5320932865142822,0.0
446,1,446,1,1,2.295201721691801,-1.2383174144493572,1.5642746913091752,0.34630777200151747,1.2450891667559825,1.371089220046997,0.0
447,1,447,-1,1,0.8622749993820022,-0.7973930719627693,1.5642746913091752,0.34630777200151747,1.2450891667559825,2.0400824546813965,0.0
448,1,448,1,1,-0.2302267128205706,-1.2383174144493572,1.5642746913091752,0.34630777200151747,1.2450891667559825,4.028069972991943,0.0
449,1,449,-1,-1,-3.174791137335352,-0.7973930719627693,1.5642746913091752,0.34630777200151747,1.2450891667559825,2.3360841274261475,0.0
450,1,450,1,-1,-0.7753349238913173,-1.2383174144493572,1.5642746913091752,0.34630777200151747,1.2450891667559825,3.481109619140625,0.0
451,1,451,1,1,1.8599950847946172,-1.2383174144493572,1.5642746913091752,0.34630777200151747,1.2450891667559825,2.214080333709717,0.0
452,1,452,-1,-1,-1.008919189570991,-0.7973930719627693,1.5642746913091752,0.34630777200151747,1.2450891667559825,2.5360934734344482,0.0
453,1,453,1,-1,-1.8299226514546967,-1.2383174144493572,1.5642746913091752,0.34630777200151747,1.2450891667559825,1.617087960243225,0.0
454,1,454,-1,-1,-0.07135620403261633,-0.7973930719627693,1.5642746913091752,0.34630777200151747,1.2450891667559825,1.6640872955322266,0.0
455,1,455,-1,-1,1.662376885413961,-0.7973930719627693,1.5642746913091752,0.34630777200151747,1.2450891667559825,1.5090893507003784,0.0
456,1,456,1,-1,-1.246149479640511,-1.2383174144493572,1.5642746913091752,0.34630777200151747,1.2450891667559825,1.4360893964767456,0.0
457,1,457,1,-1,-1.6934207337348481,-1.2383174144493572,1.5642746913091752,0.34630777200151747,1.2450891667559825,1.9070842266082764,0.0
458,1,458,1,-1,-1.6220157557840191,-1.2383174144493572,1.5642746913091752,0.34630777200151747,1.2450891667559825,2.50409197807312,0.0
459,1,459,1,1,1.2805910222790415,-1.2383174144493572,1.5642746913091752,0.34630777200151747,1.2450891667559825,1.5580886602401733,0.0
460,1,460,-1,1,1.5864038073481557,-0.7973930719627693,1.5642746913091752,0.34630777200151747,1.2450891667559825,3.500108242034912,0.0
461,1,461,1,1,2.575428370559314,-1.2383174144493572,1.5642746913091752,0.34630777200151747,1.2450891667559825,2.8931102752685547,0.0
462,1,462,-1,-1,-1.1562323189990813,-0.7973930719627693,1.5642746913091752,0.34630777200151747,1.2450891667559825,1.7670860290527344,0.0
463,1,463,1,-1,-0.8360821912260731,-1.2383174144493572,1.5642746913091752,0.34630777200151747,1.2450891667559825,1.4250893592834473,0.0
464,1,464,1,1,0.5756142155160959,-1.2383174144493572,1.5642746913091752,0.34630777200151747,1.2450891667559825,3.2611255645751953,0.0
465,1,465,1,1,1.597489024146288,-1.2383174144493572,1.5642746913091752,0.34630777200151747,1.2450891667559825,1.6850870847702026,0.0
466,1,466,-1,1,-0.20717663766948213,-0.7973930719627693,1.5642746913091752,0.34630777200151747,1.2450891667559825,2.192080497741699,0.0
467,1,467,1,1,1.8514922956095954,-1.2383174144493572,1.5642746913091752,0.34630777200151747,1.2450891667559825,1.7520861625671387,0.0
468,1,468,1,1,1.604871318296977,-1.2383174144493572,1.5642746913091752,0.34630777200151747,1.2450891667559825,1.6710872650146484,0.0
469,1,469,-1,-1,-1.5611914183172595,-0.7973930719627693,1.5642746913091752,0.34630777200151747,1.2450891667559825,2.691100597381592,1.0
470,1,470,1,1,0.7288520754704313,-1.2383174144493572,1.5642746913091752,0.34630777200151747,1.2450891667559825,1.7530862092971802,0.0
471,1,471,-1,1,1.7787145896881693,-0.7973930719627693,1.5642746913091752,0.34630777200151747,1.2450891667559825,2.6320979595184326,0.0
472,1,472,1,-1,-1.852528992675823,-1.2383174144493572,1.5642746913091752,0.34630777200151747,1.2450891667559825,1.6190879344940186,0.0
473,1,473,1,1,0.7325594909052386,-1.2383174144493572,1.5642746913091752,0.34630777200151747,1.2450891667559825,1.5720884799957275,0.0
474,1,474,-1,1,-0.1736647550491892,-0.7973930719627693,1.5642746913091752,0.34630777200151747,1.2450891667559825,1.6760871410369873,0.0
475,1,475,-1,-1,-2.86880294514875,-0.7973930719627693,1.5642746913091752,0.34630777200151747,1.2450891667559825,4.573030471801758,0.0
476,1,476,1,1,-0.18979466235624143,-1.2383174144493572,1.5642746913091752,0.34630777200151747,1.2450891667559825,1.783085823059082,0.0
477,1,477,-1,-1,0.016032091515189695,-0.7973930719627693,1.5642746913091752,0.34630777200151747,1.2450891667559825,7.559813976287842,1.0
478,1,478,1,-1,-0.7373118810566242,-1.2383174144493572,1.5642746913091752,0.34630777200151747,1.2450891667559825,2.3130831718444824,0.0
479,1,479,1,-1,-2.611439844884485,-1.2383174144493572,1.5642746913091752,0.34630777200151747,1.2450891667559825,2.9241116046905518,0.0
480,1,480,-1,1,1.370705694892188,-0.7973930719627693,1.5642746913091752,0.34630777200151747,1.2450891667559825,3.272124767303467,0.0
481,1,481,-1,-1,0.12759960324829578,-0.7973930719627693,1.5642746913091752,0.34630777200151747,1.2450891667559825,2.2340800762176514,0.0
482,1,482,-1,-1,-1.4764954651269169,-0.7973930719627693,1.5642746913091752,0.34630777200151747,1.2450891667559825,1.9960830211639404,0.0
483,1,483,-1,1,2.5828847288004226,-0.7973930719627693,1.5642746913091752,0.34630777200151747,1.2450891667559825,1.4230893850326538,0.0
484,1,484,-1,-1,-1.0305502117571255,-0.7973930719627693,1.5642746913091752,0.34630777200151747,1.2450891667559825,1.5370889902114868,0.0
485,1,485,-1,-1,-0.09058845242957658,-0.7973930719627693,1.5642746913091752,0.34630777200151747,1.2450891667559825,2.771104335784912,0.0
486,1,486,-1,-1,0.13074831717874824,-0.7973930719627693,1.5642746913091752,0.34630777200151747,1.2450891667559825,3.651097297668457,0.0
487,1,487,1,-1,-1.349993918600112,-1.2383174144493572,1.5642746913091752,0.34630777200151747,1.2450891667559825,1.5500887632369995,0.0
488,1,488,-1,-1,-0.9819001475373337,-0.7973930719627693,1.5642746913091752,0.34630777200151747,1.2450891667559825,1.4460893869400024,0.0
489,1,489,1,1,1.7239597292362334,-1.2383174144493572,1.5642746913091752,0.34630777200151747,1.2450891667559825,1.7280864715576172,0.0
490,1,490,-1,1,1.4182088496218916,-0.7973930719627693,1.5642746913091752,0.34630777200151747,1.2450891667559825,4.422041416168213,0.0
491,1,491,-1,1,1.998057969104768,-0.7973930719627693,1.5642746913091752,0.34630777200151747,1.2450891667559825,6.814867973327637,0.0
492,1,492,-1,1,0.724265831338032,-0.7973930719627693,1.5642746913091752,0.34630777200151747,1.2450891667559825,1.9660835266113281,0.0
493,1,493,1,-1,-1.1542898689848728,-1.2383174144493572,1.5642746913091752,0.34630777200151747,1.2450891667559825,1.5890883207321167,0.0
494,1,494,-1,-1,-0.595874005410842,-0.7973930719627693,1.5642746913091752,0.34630777200151747,1.2450891667559825,1.578088402748108,0.0
495,1,495,-1,-1,-1.4314971399214365,-0.7973930719627693,1.5642746913091752,0.34630777200151747,1.2450891667559825,2.0350825786590576,0.0
496,1,496,-1,1,0.9658506498579527,-0.7973930719627693,1.5642746913091752,0.34630777200151747,1.2450891667559825,2.988114595413208,1.0
497,1,497,-1,-1,-2.643278479317227,-0.7973930719627693,1.5642746913091752,0.34630777200151747,1.2450891667559825,2.518092632293701,0.0
498,1,498,1,1,0.4287571499634889,-1.2383174144493572,1.5642746913091752,0.34630777200151747,1.2450891667559825,1.9120841026306152,0.0
499,1,499,-1,1,0.3048321843684987,-0.7973930719627693,1.5642746913091752,0.34630777200151747,1.2450891667559825,1.714086651802063,0.0
500,2,0,-1,1,1.5944295665273962,-0.6845524938499665,1.631765502219509,0.3826641420768985,1.2326811780621523,3.16471529006958,0.0
501,2,1,-1,-1,-1.0352227282950772,-0.6845524938499665,1.631765502219509,0.3826641420768985,1.2326811780621523,2.02567458152771,0.0
502,2,2,-1,1,1.007530569891185,-0.6845524938499665,1.631765502219509,0.3826641420768985,1.2326811780621523,2.0886735916137695,0.0
503,2,3,-1,1,1.796181748093156,-0.6845524938499665,1.631765502219509,0.3826641420768985,1.2326811780621523,2.2226719856262207,0.0
504,2,4,-1,-1,-2.042367945460059,-0.6845524938499665,1.631765502219509,0.3826641420768985,1.2326811780621523,2.309675455093384,0.0
505,2,5,-1,1,-0.5314213042630349,-0.6845524938499665,1.631765502219509,0.3826641420768985,1.2326811780621523,1.9406756162643433,0.0
506,2,6,-1,1,2.257065239002057,-0.6845524938499665,1.631765502219509,0.3826641420768985,1.2326811780621523,4.180649757385254,0.0
507,2,7,1,-1,-0.4826894266573002,-1.365882519281431,1.631765502219509,0.3826641420768985,1.2326811780621523,1.6356794834136963,0.0
508,2,8,-1,1,0.05692894669544735,-0.6845524938499665,1.631765502219509,0.3826641420768985,1.2326811780621523,2.390679359436035,0.0
509,2,9,1,-1,-0.1017779719747568,-1.365882519281431,1.631765502219509,0.3826641420768985,1.2326811780621523,1.8406769037246704,0.0
510,2,10,-1,1,2.3728758790033666,-0.6845524938499665,1.631765502219509,0.3826641420768985,1.2326811780621523,1.8366769552230835,0.0
511,2,11,1,-1,-0.3263460199710889,-1.365882519281431,1.631765502219509,0.3826641420768985,1.2326811780621523,1.7106785774230957,0.0
512,2,12,-1,-1,-1.2843196836636717,-0.6845524938499665,1.631765502219509,0.3826641420768985,1.2326811780621523,4.781606197357178,0.0
513,2,13,-1,-1,-0.6843673102724224,-0.6845524938499665,1.631765502219509,0.3826641420768985,1.2326811780621523,2.855700969696045,0.0
514,2,14,1,-1,-1.5263733183296149,-1.365882519281431,1.631765502219509,0.3826641420768985,1.2326811780621523,1.7316782474517822,0.0
515,2,15,-1,-1,-1.5277091141256913,-0.6845524938499665,1.631765502219509,0.3826641420768985,1.2326811780621523,2.589688539505005,0.0
516,2,16,1,-1,-0.19001958276792963,-1.365882519281431,1.631765502219509,0.3826641420768985,1.2326811780621523,2.01967453956604,0.0
517,2,17,1,1,-1.1267398477422468,-1.365882519281431,1.631765502219509,0.3826641420768985,1.2326811780621523,3.7666797637939453,0.0
518,2,18,-1,-1,0.2683058991788796,-0.6845524938499665,1.631765502219509,0.3826641420768985,1.2326811780621523,2.15867280960083,0.0
519,2,19,1,1,2.2830102332754048,-1.365882519281431,1.631765502219509,0.3826641420768985,1.2326811780621523,1.9766751527786255,0.0
520,2,20,-1,-1,-1.6977320467617996,-0.6845524938499665,1.631765502219509,0.3826641420768985,1.2326811780621523,4.606618881225586,0.0
521,2,21,1,-1,-1.4498637964832295,-1.365882519281431,1.631765502219509,0.3826641420768985,1.2326811780621523,2.2836742401123047,0.0
522,2,22,-1,1,0.6251008075488899,-0.6845524938499665,1.631765502219509,0.3826641420768985,1.2326811780621523,2.5216853618621826,0.0
523,2,23,-1,-1,-1.7130725057457616,-0.6845524938499665,1.631765502219509,0.3826641420768985,1.2326811780621523,3.8926706314086914,0.0
524,2,24,-1,1,1.5205766887353716,-0.6845524938499665,1.631765502219509,0.3826641420768985,1.2326811780621523,2.4596824645996094,0.0
525,2,25,-1,-1,-1.8098511363285716,-0.6845524938499665,1.631765502219509,0.3826641420768985,1.2326811780621523,7.639399528503418,0.0
526,2,26,1,1,0.2479798589508111,-1.365882519281431,1.631765502219509,0.3826641420768985,1.2326811780621523,2.023674488067627,0.0
527,2,27,-1,1,-0.35761141798609697,-0.6845524938499665,1.631765502219509,0.3826641420768985,1.2326811780621523,1.5646804571151733,0.0
528,2,28,1,1,1.9190794446072896,-1.365882519281431,1.631765502219509,0.3826641420768985,1.2326811780621523,3.393706798553467,0.0
529,2,29,-1,-1,-1.5254926917453426,-0.6845524938499665,1.631765502219509,0.3826641420768985,1.2326811780621523,2.2526726722717285,0.0
530,2,30,-1,-1,-0.90459093855588,-0.6845524938499665,1.631765502219509,0.3826641420768985,1.2326811780621523,4.94159460067749,0.0
531,2,31,1,1,1.3453603360477424,-1.365882519281431,1.631765502219509,0.3826641420768985,1.2326811780621523,1.5616804361343384,0.0
532,2,32,1,1,2.1787292738818245,-1.365882519281431,1.631765502219509,0.3826641420768985,1.2326811780621523,2.070673942565918,0.0
533,2,33,-1,-1,-2.696259733851204,-0.6845524938499665,1.631765502219509,0.3826641420768985,1.2326811780621523,3.0067081451416016,0.0
534,2,34,-1,1,1.769881765826646,-0.6845524938499665,1.631765502219509,0.3826641420768985,1.2326811780621523,2.9957075119018555,0.0
535,2,35,-1,1,2.301125332740827,-0.6845524938499665,1.631765502219509,0.3826641420768985,1.2326811780621523,4.390634536743164,0.0
536,2,36,1,1,2.689042894575829,-1.365882519281431,1.631765502219509,0.3826641420768985,1.2326811780621523,1.8616766929626465,0.0
537,2,37,-1,-1,-1.282191824858129,-0.6845524938499665,1.631765502219509,0.3826641420768985,1.2326811780621523,1.7076785564422607,0.0
538,2,38,1,-1,-0.9077818289527423,-1.365882519281431,1.631765502219509,0.3826641420768985,1.2326811780621523,2.1406731605529785,0.0
539,2,39,-1,-1,-1.1902077568377392,-0.6845524938499665,1.631765502219509,0.3826641420768985,1.2326811780621523,5.415560722351074,0.0
540,2,40,1,1,1.937669846558752,-1.365882519281431,1.631765502219509,0.3826641420768985,1.2326811780621523,2.605689287185669,0.0
541,2,41,1,-1,-1.2293381997074389,-1.365882519281431,1.631765502219509,0.3826641420768985,1.2326811780621523,2.4686827659606934,0.0
542,2,42,-1,1,0.5230726183175842,-0.6845524938499665,1.631765502219509,0.3826641420768985,1.2326811780621523,2.024674415588379,0.0
543,2,43,1,1,0.6881600415560901,-1.365882519281431,1.631765502219509,0.3826641420768985,1.2326811780621523,2.5166850090026855,0.0
544,2,44,-1,-1,-0.8722580494595914,-0.6845524938499665,1.631765502219509,0.3826641420768985,1.2326811780621523,4.036660194396973,1.0
545,2,45,-1,-1,-2.895282665364358,-0.6845524938499665,1.631765502219509,0.3826641420768985,1.2326811780621523,6.223502159118652,0.0
546,2,46,-1,1,1.2837474795661683,-0.6845524938499665,1.631765502219509,0.3826641420768985,1.2326811780621523,1.8716764450073242,0.0
547,2,47,-1,-1,-0.2357222322222422,-0.6845524938499665,1.631765502219509,0.3826641420768985,1.2326811780621523,2.347677230834961,0.0
548,2,48,-1,-1,-2.6569358021554694,-0.6845524938499665,1.631765502219509,0.3826641420768985,1.2326811780621523,3.363708972930908,0.0
549,2,49,-1,1,3.5487946131587225,-0.6845524938499665,1.631765502219509,0.3826641420768985,1.2326811780621523,1.506681203842163,0.0
550,2,50,-1,-1,-1.931810282549649,-0.6845524938499665,1.631765502219509,0.3826641420768985,1.2326811780621523,5.4305596351623535,0.0
551,2,51,-1,1,-0.07046654276561637,-0.6845524938499665,1.631765502219509,0.3826641420768985,1.2326811780621523,6.547478675842285,0.0
552,2,52,1,-1,0.3253992623007995,-1.365882519281431,1.631765502219509,0.3826641420768985,1.2326811780621523,3.734682083129883,0.0
553,2,53,1,1,1.6297300266495816,-1.365882519281431,1.631765502219509,0.3826641420768985,1.2326811780621523,2.0936737060546875,0.0
554,2,54,1,1,0.5538355853139524,-1.365882519281431,1.631765502219509,0.3826641420768985,1.2326811780621523,1.4686814546585083,0.0
555,2,55,1,1,1.1023934557636246,-1.365882519281431,1.631765502219509,0.3826641420768985,1.2326811780621523,2.0556740760803223,0.0
556,2,56,-1,-1,-1.0352001284007175,-0.6845524938499665,1.631765502219509,0.3826641420768985,1.2326811780621523,2.1906723976135254,0.0
557,2,57,1,1,0.626143792126635,-1.365882519281431,1.631765502219509,0.3826641420768985,1.2326811780621523,3.690685272216797,0.0
558,2,58,-1,-1,-2.1582701505268775,-0.6845524938499665,1.631765502219509,0.3826641420768985,1.2326811780621523,4.6166181564331055,0.0
559,2,59,1,1,-0.8980083091564914,-1.365882519281431,1.631765502219509,0.3826641420768985,1.2326811780621523,1.7996773719787598,0.0
560,2,60,-1,1,1.9336579597431753,-0.6845524938499665,1.631765502219509,0.3826641420768985,1.2326811780621523,2.2976748943328857,1.0
561,2,61,1,1,-0.14725584571104378,-1.365882519281431,1.631765502219509,0.3826641420768985,1.2326811780621523,1.7886775732040405,0.0
562,2,62,1,1,0.40084845489326604,-1.365882519281431,1.631765502219509,0.3826641420768985,1.2326811780621523,2.0976736545562744,0.0
563,2,63,-1,1,1.5400259477292524,-0.6845524938499665,1.631765502219509,0.3826641420768985,1.2326811780621523,3.0487098693847656,0.0
564,2,64,1,-1,0.7191793879833566,-1.365882519281431,1.631765502219509,0.3826641420768985,1.2326811780621523,1.5976799726486206,0.0
565,2,65,-1,-1,-2.0110309382184752,-0.6845524938499665,1.631765502219509,0.3826641420768985,1.2326811780621523,2.315675735473633,0.0
566,2,66,-1,-1,-0.3817183106237956,-0.6845524938499665,1.631765502219509,0.3826641420768985,1.2326811780621523,1.4616814851760864,0.0
567,2,67,-1,1,1.808563365471286,-0.6845524938499665,1.631765502219509,0.3826641420768985,1.2326811780621523,1.5976799726486206,0.0
568,2,68,1,1,2.648946460667809,-1.365882519281431,1.631765502219509,0.3826641420768985,1.2326811780621523,2.1336731910705566,0.0
569,2,69,-1,1,-0.27819980327002436,-0.6845524938499665,1.631765502219509,0.3826641420768985,1.2326811780621523,2.7456958293914795,0.0
570,2,70,-1,-1,-1.6236845199483656,-0.6845524938499665,1.631765502219509,0.3826641420768985,1.2326811780621523,1.9936749935150146,0.0
571,2,71,-1,1,1.7097325382166806,-0.6845524938499665,1.631765502219509,0.3826641420768985,1.2326811780621523,1.691678762435913,0.0
572,2,72,1,1,1.8053085549975414,-1.365882519281431,1.631765502219509,0.3826641420768985,1.2326811780621523,4.7216105461120605,0.0
573,2,73,1,-1,-1.3314360176336646,-1.365882519281431,1.631765502219509,0.3826641420768985,1.2326811780621523,2.7446956634521484,0.0
574,2,74,1,-1,-1.8190187447381754,-1.365882519281431,1.631765502219509,0.3826641420768985,1.2326811780621523,3.6516880989074707,0.0
575,2,75,-1,1,-0.13487325269262107,-0.6845524938499665,1.631765502219509,0.3826641420768985,1.2326811780621523,5.3035688400268555,0.0
576,2,76,1,1,-0.08155043308809562,-1.365882519281431,1.631765502219509,0.3826641420768985,1.2326811780621523,1.607679843902588,0.0
577,2,77,1,1,1.498515118877401,-1.365882519281431,1.631765502219509,0.3826641420768985,1.2326811780621523,1.8886762857437134,0.0
578,2,78,-1,1,0.985555677510335,-0.6845524938499665,1.631765502219509,0.3826641420768985,1.2326811780621523,3.262716293334961,0.0
579,2,79,-1,1,1.123295888704758,-0.6845524938499665,1.631765502219509,0.3826641420768985,1.2326811780621523,1.5656803846359253,0.0
580,2,80,-1,1,1.504382430933096,-0.6845524938499665,1.631765502219509,0.3826641420768985,1.2326811780621523,2.9427051544189453,0.0
581,2,81,-1,-1,-2.124879711451142,-0.6845524938499665,1.631765502219509,0.3826641420768985,1.2326811780621523,2.4546823501586914,0.0
582,2,82,-1,1,1.6724405638605453,-0.6845524938499665,1.631765502219509,0.3826641420768985,1.2326811780621523,2.168672561645508,0.0
583,2,83,1,1,-0.19056619260856378,-1.365882519281431,1.631765502219509,0.3826641420768985,1.2326811780621523,1.5396807193756104,0.0
584,2,84,-1,1,1.8546694123845586,-0.6845524938499665,1.631765502219509,0.3826641420768985,1.2326811780621523,2.2846741676330566,0.0
585,2,85,-1,1,-1.3666790591726912,-0.6845524938499665,1.631765502219509,0.3826641420768985,1.2326811780621523,2.644690990447998,0.0
586,2,86,1,-1,-1.5173313411073015,-1.365882519281431,1.631765502219509,0.3826641420768985,1.2326811780621523,2.1936724185943604,0.0
587,2,87,-1,-1,-2.2075663946914927,-0.6845524938499665,1.631765502219509,0.3826641420768985,1.2326811780621523,1.4936813116073608,0.0
588,2,88,1,1,-0.631024560789609,-1.365882519281431,1.631765502219509,0.3826641420768985,1.2326811780621523,1.8116772174835205,0.0
589,2,89,1,-1,-0.9193396651979565,-1.365882519281431,1.631765502219509,0.3826641420768985,1.2326811780621523,1.746678113937378,0.0
590,2,90,-1,1,-0.9984092073672708,-0.6845524938499665,1.631765502219509,0.3826641420768985,1.2326811780621523,4.151651859283447,0.0
591,2,91,1,1,-0.6770245816851759,-1.365882519281431,1.631765502219509,0.3826641420768985,1.2326811780621523,1.9656753540039062,0.0
592,2,92,1,-1,-2.4074184890487733,-1.365882519281431,1.631765502219509,0.3826641420768985,1.2326811780621523,2.4596824645996094,0.0
593,2,93,-1,1,1.2962060236634314,-0.6845524938499665,1.631765502219509,0.3826641420768985,1.2326811780621523,1.5386807918548584,0.0
594,2,94,1,-1,-2.8400805522327905,-1.365882519281431,1.631765502219509,0.3826641420768985,1.2326811780621523,1.9196758270263672,0.0
595,2,95,-1,1,1.0899519467126724,-0.6845524938499665,1.631765502219509,0.3826641420768985,1.2326811780621523,2.3166756629943848,0.0
596,2,96,-1,1,0.600137833080137,-0.6845524938499665,1.631765502219509,0.3826641420768985,1.2326811780621523,1.8096773624420166,1.0
597,2,97,-1,1,-0.2887310252455271,-0.6845524938499665,1.631765502219509,0.3826641420768985,1.2326811780621523,2.810698986053467,0.0
598,2,98,-1,1,0.3462804941286436,-0.6845524938499665,1.631765502219509,0.3826641420768985,1.2326811780621523,2.9747066497802734,0.0
599,2,99,-1,1,0.2984597277299551,-0.6845524938499665,1.631765502219509,0.3826641420768985,1.2326811780621523,2.4986844062805176,0.0
600,2,100,1,-1,-1.0196492828975483,-1.365882519281431,1.631765502219509,0.3826641420768985,1.2326811780621523,1.6316795349121094,0.0
601,2,101,1,-1,0.11147295991783812,-1.365882519281431,1.631765502219509,0.3826641420768985,1.2326811780621523,1.4356813430786133,0.0
602,2,102,1,1,1.3743403109116963,-1.365882519281431,1.631765502219509,0.3826641420768985,1.2326811780621523,5.590548038482666,0.0
603,2,103,1,1,-0.948897448166611,-1.365882519281431,1.631765502219509,0.3826641420768985,1.2326811780621523,3.4447031021118164,0.0
604,2,104,1,1,0.39847019553080876,-1.365882519281431,1.631765502219509,0.3826641420768985,1.2326811780621523,2.2646732330322266,0.0
605,2,105,1,1,-0.29050415831576437,-1.365882519281431,1.631765502219509,0.3826641420768985,1.2326811780621523,1.5276808738708496,0.0
606,2,106,1,1,1.8405274839117614,-1.365882519281431,1.631765502219509,0.3826641420768985,1.2326811780621523,2.356677532196045,0.0
607,2,107,1,-1,-2.01305336162321,-1.365882519281431,1.631765502219509,0.3826641420768985,1.2326811780621523,1.7726777791976929,0.0
608,2,108,-1,-1,-0.974400866822704,-0.6845524938499665,1.631765502219509,0.3826641420768985,1.2326811780621523,1.7316782474517822,0.0
609,2,109,-1,-1,-1.6485273642422467,-0.6845524938499665,1.631765502219509,0.3826641420768985,1.2326811780621523,1.6386795043945312,0.0
610,2,110,1,1,2.0861372841047388,-1.365882519281431,1.631765502219509,0.3826641420768985,1.2326811780621523,2.609689474105835,0.0
611,2,111,1,-1,-1.274425378043734,-1.365882519281431,1.631765502219509,0.3826641420768985,1.2326811780621523,1.8536767959594727,0.0
612,2,112,-1,-1,-2.4819271113838672,-0.6845524938499665,1.631765502219509,0.3826641420768985,1.2326811780621523,2.859701156616211,0.0
613,2,113,1,1,1.4172327691433957,-1.365882519281431,1.631765502219509,0.3826641420768985,1.2326811780621523,2.2716736793518066,0.0
614,2,114,-1,-1,-0.9239954334203864,-0.6845524938499665,1.631765502219509,0.3826641420768985,1.2326811780621523,1.835676908493042,0.0
615,2,115,-1,-1,0.9596248989383438,-0.6845524938499665,1.631765502219509,0.3826641420768985,1.2326811780621523,2.8046984672546387,0.0
616,2,116,1,-1,-0.16080654483385404,-1.365882519281431,1.631765502219509,0.3826641420768985,1.2326811780621523,1.5046812295913696,0.0
617,2,117,-1,1,1.1280460311016038,-0.6845524938499665,1.631765502219509,0.3826641420768985,1.2326811780621523,2.116673469543457,0.0
618,2,118,1,-1,-2.0975147374443877,-1.365882519281431,1.631765502219509,0.3826641420768985,1.2326811780621523,1.4686814546585083,0.0
619,2,119,-1,-1,-1.6990583038299034,-0.6845524938499665,1.631765502219509,0.3826641420768985,1.2326811780621523,2.918704032897949,0.0
620,2,120,1,1,0.9915461043586302,-1.365882519281431,1.631765502219509,0.3826641420768985,1.2326811780621523,1.7276782989501953,0.0
621,2,121,-1,1,2.1408275006600492,-0.6845524938499665,1.631765502219509,0.3826641420768985,1.2326811780621523,2.397679567337036,0.0
622,2,122,-1,-1,-0.40389567006170646,-0.6845524938499665,1.631765502219509,0.3826641420768985,1.2326811780621523,1.6486793756484985,0.0
623,2,123,1,-1,-0.9433387298339391,-1.365882519281431,1.631765502219509,0.3826641420768985,1.2326811780621523,2.336676597595215,0.0
624,2,124,1,1,1.3197758880296604,-1.365882519281431,1.631765502219509,0.3826641420768985,1.2326811780621523,2.062674045562744,0.0
625,2,125,1,-1,0.2769133972928437,-1.365882519281431,1.631765502219509,0.3826641420768985,1.2326811780621523,1.9706752300262451,0.0
626,2,126,-1,1,0.5001056928602337,-0.6845524938499665,1.631765502219509,0.3826641420768985,1.2326811780621523,2.5606870651245117,0.0
627,2,127,-1,-1,-1.7141921005054823,-0.6845524938499665,1.631765502219509,0.3826641420768985,1.2326811780621523,2.3046751022338867,0.0
628,2,128,1,-1,-1.2729450783980958,-1.365882519281431,1.631765502219509,0.3826641420768985,1.2326811780621523,2.0326743125915527,0.0
629,2,129,-1,-1,0.08418943473175045,-0.6845524938499665,1.631765502219509,0.3826641420768985,1.2326811780621523,4.2106475830078125,0.0
630,2,130,-1,-1,-1.5045043487233292,-0.6845524938499665,1.631765502219509,0.3826641420768985,1.2326811780621523,6.2844977378845215,0.0
631,2,131,-1,-1,-0.542391752444054,-0.6845524938499665,1.631765502219509,0.3826641420768985,1.2326811780621523,4.093656063079834,0.0
632,2,132,-1,-1,-2.6723837534277655,-0.6845524938499665,1.631765502219509,0.3826641420768985,1.2326811780621523,2.6326904296875,0.0
633,2,133,-1,1,2.0793405715649316,-0.6845524938499665,1.631765502219509,0.3826641420768985,1.2326811780621523,1.7196784019470215,0.0
634,2,134,1,-1,-0.24725365445197456,-1.365882519281431,1.631765502219509,0.3826641420768985,1.2326811780621523,1.6936787366867065,0.0
635,2,135,-1,1,0.7533957736695809,-0.6845524938499665,1.631765502219509,0.3826641420768985,1.2326811780621523,2.0056748390197754,0.0
636,2,136,1,-1,-0.4594150841811563,-1.365882519281431,1.631765502219509,0.3826641420768985,1.2326811780621523,1.7816777229309082,0.0
637,2,137,-1,-1,-0.06837778633222213,-0.6845524938499665,1.631765502219509,0.3826641420768985,1.2326811780621523,1.9376757144927979,0.0
638,2,138,-1,1,0.5456326772757429,-0.6845524938499665,1.631765502219509,0.3826641420768985,1.2326811780621523,1.838676929473877,0.0
639,2,139,1,1,-0.35950423800029774,-1.365882519281431,1.631765502219509,0.3826641420768985,1.2326811780621523,1.5856801271438599,0.0
640,2,140,1,1,1.8254670023487671,-1.365882519281431,1.631765502219509,0.3826641420768985,1.2326811780621523,3.7846784591674805,0.0
641,2,141,-1,-1,-2.0984717219943363,-0.6845524938499665,1.631765502219509,0.3826641420768985,1.2326811780621523,9.097293853759766,0.0
642,2,142,1,1,1.6126836402927678,-1.365882519281431,1.631765502219509,0.3826641420768985,1.2326811780621523,2.7146944999694824,0.0
643,2,143,-1,-1,0.23890070112889572,-0.6845524938499665,1.631765502219509,0.3826641420768985,1.2326811780621523,8.277353286743164,0.0
644,2,144,1,1,2.769714239905512,-1.365882519281431,1.631765502219509,0.3826641420768985,1.2326811780621523,2.017674684524536,0.0
645,2,145,-1,1,1.8365603865198126,-0.6845524938499665,1.631765502219509,0.3826641420768985,1.2326811780621523,1.8106772899627686,0.0
646,2,146,-1,1,1.6534918478993785,-0.6845524938499665,1.631765502219509,0.3826641420768985,1.2326811780621523,2.594688892364502,0.0
647,2,147,-1,-1,-0.5556509979022084,-0.6845524938499665,1.631765502219509,0.3826641420768985,1.2326811780621523,1.4586814641952515,0.0
648,2,148,-1,1,-0.1780461176626098,-0.6845524938499665,1.631765502219509,0.3826641420768985,1.2326811780621523,2.7686967849731445,0.0
649,2,149,-1,1,0.9309409480515894,-0.6845524938499665,1.631765502219509,0.3826641420768985,1.2326811780621523,1.8056774139404297,0.0
650,2,150,-1,1,1.6093896073472378,-0.6845524938499665,1.631765502219509,0.3826641420768985,1.2326811780621523,4.535624027252197,0.0
651,2,151,-1,1,2.2962289178513133,-0.6845524938499665,1.631765502219509,0.3826641420768985,1.2326811780621523,1.8156771659851074,0.0
652,2,152,-1,-1,-1.7851814570142577,-0.6845524938499665,1.631765502219509,0.3826641420768985,1.2326811780621523,1.8406769037246704,0.0
653,2,153,1,1,-0.029369251575656508,-1.365882519281431,1.631765502219509,0.3826641420768985,1.2326811780621523,1.5756802558898926,0.0
654,2,154,-1,-1,-0.5578360773414655,-0.6845524938499665,1.631765502219509,0.3826641420768985,1.2326811780621523,1.8756763935089111,0.0
655,2,155,1,-1,-0.5762641654110543,-1.365882519281431,1.631765502219509,0.3826641420768985,1.2326811780621523,1.5886801481246948,0.0
656,2,156,1,-1,1.2115456868032375,-1.365882519281431,1.631765502219509,0.3826641420768985,1.2326811780621523,2.110673427581787,0.0
657,2,157,-1,-1,-0.867320875596092,-0.6845524938499665,1.631765502219509,0.3826641420768985,1.2326811780621523,1.4646813869476318,0.0
658,2,158,1,1,2.6885228358023108,-1.365882519281431,1.631765502219509,0.3826641420768985,1.2326811780621523,1.9366756677627563,0.0
659,2,159,-1,-1,-3.1953073502466305,-0.6845524938499665,1.631765502219509,0.3826641420768985,1.2326811780621523,2.610689640045166,0.0
660,2,160,-1,-1,-0.899976041609926,-0.6845524938499665,1.631765502219509,0.3826641420768985,1.2326811780621523,1.7096785306930542,0.0
661,2,161,1,1,0.22344113683405142,-1.365882519281431,1.631765502219509,0.3826641420768985,1.2326811780621523,1.5856801271438599,0.0
662,2,162,-1,1,1.192963876546208,-0.6845524938499665,1.631765502219509,0.3826641420768985,1.2326811780621523,3.559694766998291,0.0
663,2,163,1,-1,-1.4889670546361544,-1.365882519281431,1.631765502219509,0.3826641420768985,1.2326811780621523,1.9126759767532349,0.0
664,2,164,-1,1,1.1406702454528956,-0.6845524938499665,1.631765502219509,0.3826641420768985,1.2326811780621523,1.4996812343597412,0.0
665,2,165,-1,-1,-0.2906540179813534,-0.6845524938499665,1.631765502219509,0.3826641420768985,1.2326811780621523,2.1446728706359863,0.0
666,2,166,1,1,0.2434692070037845,-1.365882519281431,1.631765502219509,0.3826641420768985,1.2326811780621523,1.5486806631088257,0.0
667,2,167,-1,-1,-0.271268973676389,-0.6845524938499665,1.631765502219509,0.3826641420768985,1.2326811780621523,2.161672830581665,0.0
668,2,168,-1,-1,1.0405924385163536,-0.6845524938499665,1.631765502219509,0.3826641420768985,1.2326811780621523,2.550686836242676,0.0
669,2,169,1,-1,-1.7478893290673956,-1.365882519281431,1.631765502219509,0.3826641420768985,1.2326811780621523,3.5466957092285156,0.0
670,2,170,-1,-1,-1.1567980246844252,-0.6845524938499665,1.631765502219509,0.3826641420768985,1.2326811780621523,2.384678840637207,0.0
671,2,171,1,1,2.0905145330058827,-1.365882519281431,1.631765502219509,0.3826641420768985,1.2326811780621523,2.0966734886169434,0.0
672,2,172,1,1,1.3237394232036008,-1.365882519281431,1.631765502219509,0.3826641420768985,1.2326811780621523,2.1786725521087646,0.0
673,2,173,-1,-1,-1.3399262052549799,-0.6845524938499665,1.631765502219509,0.3826641420768985,1.2326811780621523,1.7776777744293213,0.0
674,2,174,1,1,1.0159368281084684,-1.365882519281431,1.631765502219509,0.3826641420768985,1.2326811780621523,1.8156771659851074,0.0
675,2,175,-1,-1,-1.3052735930072008,-0.6845524938499665,1.631765502219509,0.3826641420768985,1.2326811780621523,2.931704521179199,0.0
676,2,176,1,-1,-2.720659274448069,-1.365882519281431,1.631765502219509,0.3826641420768985,1.2326811780621523,1.9536755084991455,0.0
677,2,177,1,-1,-0.37064572923763717,-1.365882519281431,1.631765502219509,0.3826641420768985,1.2326811780621523,1.6446794271469116,0.0
678,2,178,-1,-1,-1.6057995478410865,-0.6845524938499665,1.631765502219509,0.3826641420768985,1.2326811780621523,1.8806763887405396,0.0
679,2,179,1,-1,-0.5671684272739728,-1.365882519281431,1.631765502219509,0.3826641420768985,1.2326811780621523,2.0396742820739746,0.0
680,2,180,1,1,2.5207912034521973,-1.365882519281431,1.631765502219509,0.3826641420768985,1.2326811780621523,1.5886801481246948,0.0
681,2,181,-1,1,1.724836614923357,-0.6845524938499665,1.631765502219509,0.3826641420768985,1.2326811780621523,2.0376744270324707,0.0
682,2,182,1,1,2.259983947926357,-1.365882519281431,1.631765502219509,0.3826641420768985,1.2326811780621523,1.7566779851913452,0.0
683,2,183,-1,-1,0.3156624260672163,-0.6845524938499665,1.631765502219509,0.3826641420768985,1.2326811780621523,1.6856788396835327,0.0
684,2,184,1,1,0.4184347279323535,-1.365882519281431,1.631765502219509,0.3826641420768985,1.2326811780621523,2.352677345275879,0.0
685,2,185,1,-1,-0.7299086100335872,-1.365882519281431,1.631765502219509,0.3826641420768985,1.2326811780621523,1.8276770114898682,0.0
686,2,186,1,1,2.080060041874752,-1.365882519281431,1.631765502219509,0.3826641420768985,1.2326811780621523,1.88667631149292,0.0
687,2,187,-1,-1,-0.14677124713321565,-0.6845524938499665,1.631765502219509,0.3826641420768985,1.2326811780621523,2.112673282623291,0.0
688,2,188,-1,1,-0.19047482569639507,-0.6845524938499665,1.631765502219509,0.3826641420768985,1.2326811780621523,2.7956981658935547,0.0
689,2,189,1,1,1.2070563127047638,-1.365882519281431,1.631765502219509,0.3826641420768985,1.2326811780621523,2.7416956424713135,0.0
690,2,190,1,1,0.5017065116296024,-1.365882519281431,1.631765502219509,0.3826641420768985,1.2326811780621523,2.320675849914551,0.0
691,2,191,1,1,-0.2522387129818613,-1.365882519281431,1.631765502219509,0.3826641420768985,1.2326811780621523,1.511681079864502,0.0
692,2,192,-1,1,-0.16583559305167817,-0.6845524938499665,1.631765502219509,0.3826641420768985,1.2326811780621523,2.6666922569274902,0.0
693,2,193,1,1,1.8785360024440574,-1.365882519281431,1.631765502219509,0.3826641420768985,1.2326811780621523,1.699678659439087,0.0
694,2,194,-1,1,-0.9977341293981588,-0.6845524938499665,1.631765502219509,0.3826641420768985,1.2326811780621523,1.4736814498901367,0.0
695,2,195,-1,-1,-0.29762294884093277,-0.6845524938499665,1.631765502219509,0.3826641420768985,1.2326811780621523,5.493555068969727,0.0
696,2,196,-1,1,3.1644756837872605,-0.6845524938499665,1.631765502219509,0.3826641420768985,1.2326811780621523,4.621617794036865,0.0
697,2,197,1,1,-0.6406489681357119,-1.365882519281431,1.631765502219509,0.3826641420768985,1.2326811780621523,1.7736778259277344,0.0
698,2,198,-1,-1,-1.45808604640451,-0.6845524938499665,1.631765502219509,0.3826641420768985,1.2326811780621523,1.4866814613342285,0.0
699,2,199,1,1,0.8502230322647011,-1.365882519281431,1.631765502219509,0.3826641420768985,1.2326811780621523,2.026674509048462,0.0
700,2,200,1,-1,-2.535197130328067,-1.365882519281431,1.631765502219509,0.3826641420768985,1.2326811780621523,2.582688331604004,0.0
701,2,201,-1,1,0.25792072789271026,-0.6845524938499665,1.631765502219509,0.3826641420768985,1.2326811780621523,2.110673427581787,0.0
702,2,202,1,-1,-1.6327757060632484,-1.365882519281431,1.631765502219509,0.3826641420768985,1.2326811780621523,1.8736765384674072,0.0
703,2,203,1,1,1.815469392633453,-1.365882519281431,1.631765502219509,0.3826641420768985,1.2326811780621523,1.7796776294708252,0.0
704,2,204,1,-1,-0.6157911174041084,-1.365882519281431,1.631765502219509,0.3826641420768985,1.2326811780621523,2.0846738815307617,0.0
705,2,205,1,-1,-2.3219617176373055,-1.365882519281431,1.631765502219509,0.3826641420768985,1.2326811780621523,1.8156771659851074,0.0
706,2,206,-1,1,1.9570919577681973,-0.6845524938499665,1.631765502219509,0.3826641420768985,1.2326811780621523,2.365678071975708,0.0
707,2,207,-1,-1,1.0812892012971198,-0.6845524938499665,1.631765502219509,0.3826641420768985,1.2326811780621523,1.8426768779754639,0.0
708,2,208,1,-1,-2.249610661925134,-1.365882519281431,1.631765502219509,0.3826641420768985,1.2326811780621523,2.1266732215881348,0.0
709,2,209,1,1,0.47425435342792155,-1.365882519281431,1.631765502219509,0.3826641420768985,1.2326811780621523,2.9417049884796143,0.0
710,2,210,1,-1,-0.17095289124673785,-1.365882519281431,1.631765502219509,0.3826641420768985,1.2326811780621523,1.4096813201904297,0.0
711,2,211,1,-1,-1.514522011657216,-1.365882519281431,1.631765502219509,0.3826641420768985,1.2326811780621523,1.793677568435669,0.0
712,2,212,-1,-1,-1.0869460627217737,-0.6845524938499665,1.631765502219509,0.3826641420768985,1.2326811780621523,2.597688913345337,0.0
713,2,213,1,1,0.6475773917341711,-1.365882519281431,1.631765502219509,0.3826641420768985,1.2326811780621523,2.589688539505005,0.0
714,2,214,1,1,1.3088592024413757,-1.365882519281431,1.631765502219509,0.3826641420768985,1.2326811780621523,1.8156771659851074,0.0
715,2,215,-1,1,0.44225368845682267,-0.6845524938499665,1.631765502219509,0.3826641420768985,1.2326811780621523,1.8956761360168457,0.0
716,2,216,-1,-1,-0.5333270307461027,-0.6845524938499665,1.631765502219509,0.3826641420768985,1.2326811780621523,2.5296857357025146,0.0
717,2,217,1,-1,-2.1635555874358428,-1.365882519281431,1.631765502219509,0.3826641420768985,1.2326811780621523,2.613689661026001,0.0
718,2,218,1,-1,-0.30858925048620867,-1.365882519281431,1.631765502219509,0.3826641420768985,1.2326811780621523,2.026674509048462,0.0
719,2,219,1,1,0.014273651375177998,-1.365882519281431,1.631765502219509,0.3826641420768985,1.2326811780621523,3.8046770095825195,0.0
720,2,220,-1,1,2.575928824502554,-0.6845524938499665,1.631765502219509,0.3826641420768985,1.2326811780621523,2.2256720066070557,0.0
721,2,221,1,1,1.5928610487450885,-1.365882519281431,1.631765502219509,0.3826641420768985,1.2326811780621523,4.093656063079834,0.0
722,2,222,-1,-1,0.011170007301820606,-0.6845524938499665,1.631765502219509,0.3826641420768985,1.2326811780621523,1.952675461769104,0.0
723,2,223,1,-1,0.5113999490706598,-1.365882519281431,1.631765502219509,0.3826641420768985,1.2326811780621523,2.629690408706665,0.0
724,2,224,-1,1,1.7754610493046785,-0.6845524938499665,1.631765502219509,0.3826641420768985,1.2326811780621523,1.8406769037246704,0.0
725,2,225,1,1,0.019057357790039586,-1.365882519281431,1.631765502219509,0.3826641420768985,1.2326811780621523,1.5356807708740234,0.0
726,2,226,-1,1,1.303463594284626,-0.6845524938499665,1.631765502219509,0.3826641420768985,1.2326811780621523,3.2167177200317383,0.0
727,2,227,1,-1,-1.414846493971899,-1.365882519281431,1.631765502219509,0.3826641420768985,1.2326811780621523,2.4936840534210205,0.0
728,2,228,-1,-1,-0.11643032865742786,-0.6845524938499665,1.631765502219509,0.3826641420768985,1.2326811780621523,2.1836724281311035,0.0
729,2,229,-1,1,0.32159508325082575,-0.6845524938499665,1.631765502219509,0.3826641420768985,1.2326811780621523,1.8286770582199097,0.0
730,2,230,1,-1,-2.9657618047515077,-1.365882519281431,1.631765502219509,0.3826641420768985,1.2326811780621523,1.883676290512085,0.0
731,2,231,-1,-1,-2.009733937176976,-0.6845524938499665,1.631765502219509,0.3826641420768985,1.2326811780621523,2.341676950454712,0.0
732,2,232,-1,1,1.5668173907903054,-0.6845524938499665,1.631765502219509,0.3826641420768985,1.2326811780621523,1.8466768264770508,0.0
733,2,233,1,-1,-3.5018939005349585,-1.365882519281431,1.631765502219509,0.3826641420768985,1.2326811780621523,2.849700689315796,0.0
734,2,234,1,1,1.4288031679612114,-1.365882519281431,1.631765502219509,0.3826641420768985,1.2326811780621523,2.625690221786499,0.0
735,2,235,1,1,0.2207050461868859,-1.365882519281431,1.631765502219509,0.3826641420768985,1.2326811780621523,1.7756776809692383,0.0
736,2,236,-1,1,1.590686488744526,-0.6845524938499665,1.631765502219509,0.3826641420768985,1.2326811780621523,4.894598007202148,0.0
737,2,237,1,1,0.42608384816282574,-1.365882519281431,1.631765502219509,0.3826641420768985,1.2326811780621523,2.1426730155944824,0.0
738,2,238,1,-1,-2.8262983330629456,-1.365882519281431,1.631765502219509,0.3826641420768985,1.2326811780621523,2.5186853408813477,0.0
739,2,239,-1,-1,0.4519103725637672,-0.6845524938499665,1.631765502219509,0.3826641420768985,1.2326811780621523,1.83467698097229,0.0
740,2,240,-1,-1,0.011272312745581603,-0.6845524938499665,1.631765502219509,0.3826641420768985,1.2326811780621523,1.7046786546707153,0.0
741,2,241,1,-1,-0.09432658258477311,-1.365882519281431,1.631765502219509,0.3826641420768985,1.2326811780621523,2.165672779083252,0.0
742,2,242,-1,1,2.3730478558067,-0.6845524938499665,1.631765502219509,0.3826641420768985,1.2326811780621523,3.8866710662841797,0.0
743,2,243,-1,-1,-1.0460389830590748,-0.6845524938499665,1.631765502219509,0.3826641420768985,1.2326811780621523,2.598689079284668,0.0
744,2,244,-1,1,1.5786467324169204,-0.6845524938499665,1.631765502219509,0.3826641420768985,1.2326811780621523,2.919703960418701,0.0
745,2,245,1,1,0.8878620407398591,-1.365882519281431,1.631765502219509,0.3826641420768985,1.2326811780621523,1.8046773672103882,0.0
746,2,246,-1,1,1.6500828712421047,-0.6845524938499665,1.631765502219509,0.3826641420768985,1.2326811780621523,3.0767111778259277,0.0
