,subj_idx,trial_idx,S,X,M,v,a,z,t,rt,response
0,1,0,-1,1,0.7858143069645172,0.382037894814105,1.4580973633847119,0.6310094067729509,0.826347535536586,1.171346664428711,1.0
1,1,1,-1,1,-0.6696402494058433,0.382037894814105,1.4580973633847119,0.6451443300948159,0.826347535536586,2.0293476581573486,0.0
2,1,2,-1,1,-0.15703420718334304,0.382037894814105,1.4580973633847119,0.6401660591694707,0.826347535536586,0.938347578048706,1.0
3,1,3,1,-1,1.0882519438928069,-0.0020006566054523722,1.4580973633847119,0.6280722262275904,0.826347535536586,1.9963462352752686,0.0
4,1,4,-1,-1,-2.163206104507732,0.6278438724316042,1.4580973633847119,0.659649378531827,0.826347535536586,4.566258907318115,1.0
5,1,5,-1,1,-0.871788002938609,0.382037894814105,1.4580973633847119,0.6471075263920596,0.826347535536586,1.4103436470031738,1.0
6,1,6,-1,-1,-1.4404466379868015,0.6278438724316042,1.4580973633847119,0.6526301627172828,0.826347535536586,2.9223780632019043,1.0
7,1,7,-1,-1,1.9157224771552535,0.6278438724316042,1.4580973633847119,0.6200360890032612,0.826347535536586,1.2993450164794922,1.0
8,1,8,1,-1,-1.0618314957274206,-0.0020006566054523722,1.4580973633847119,0.6489531698624323,0.826347535536586,3.400343418121338,0.0
9,1,9,1,-1,0.33817206973250974,-0.0020006566054523722,1.4580973633847119,0.6353567693691984,0.826347535536586,2.5473718643188477,1.0
10,1,10,-1,-1,-0.9209275558046686,0.6278438724316042,1.4580973633847119,0.6475847544915508,0.826347535536586,1.5523416996002197,1.0
11,1,11,-1,1,0.205151141235966,0.382037894814105,1.4580973633847119,0.6366486273775933,0.826347535536586,3.31434965133667,1.0
12,1,12,-1,-1,0.33377006489250904,0.6278438724316042,1.4580973633847119,0.6353995202751636,0.826347535536586,1.0203477144241333,1.0
13,1,13,1,-1,-0.6310055452882873,-0.0020006566054523722,1.4580973633847119,0.6447691218288659,0.826347535536586,5.856165409088135,0.0
14,1,14,1,-1,1.074369586406646,-0.0020006566054523722,1.4580973633847119,0.6282070473786423,0.826347535536586,1.4673428535461426,1.0
15,1,15,-1,1,0.09745911847639757,0.382037894814105,1.4580973633847119,0.6376944989078451,0.826347535536586,2.685378313064575,0.0
16,1,16,1,-1,-0.7246328672722812,-0.0020006566054523722,1.4580973633847119,0.6456784013465828,0.826347535536586,3.073367118835449,1.0
17,1,17,-1,1,2.676039131328135,0.382037894814105,1.4580973633847119,0.6126521294285483,0.826347535536586,3.886308193206787,1.0
18,1,18,1,1,0.3406932743499959,-0.24780663422295165,1.4580973633847119,0.635332284211767,0.826347535536586,2.2813594341278076,1.0
19,1,19,1,-1,0.9826612746938992,-0.0020006566054523722,1.4580973633847119,0.6290976900636809,0.826347535536586,2.4763686656951904,1.0
20,1,20,1,-1,1.0174216402374772,-0.0020006566054523722,1.4580973633847119,0.6287601081725473,0.826347535536586,3.701321601867676,1.0
21,1,21,1,1,0.36197061190221724,-0.24780663422295165,1.4580973633847119,0.6351256453074621,0.826347535536586,1.1063474416732788,1.0
22,1,22,1,1,0.9543748108248936,-0.24780663422295165,1.4580973633847119,0.6293723994292775,0.826347535536586,1.1703466176986694,1.0
23,1,23,1,-1,-0.36970037304644315,-0.0020006566054523722,1.4580973633847119,0.6422314070255565,0.826347535536586,1.2223459482192993,1.0
24,1,24,1,-1,-0.9244147335916574,-0.0020006566054523722,1.4580973633847119,0.6476186208808606,0.826347535536586,2.112351655960083,0.0
25,1,25,1,-1,1.453367101908301,-0.0020006566054523722,1.4580973633847119,0.6245263410334351,0.826347535536586,1.6413406133651733,1.0
26,1,26,-1,1,-0.41145449168559456,0.382037894814105,1.4580973633847119,0.6426369100780244,0.826347535536586,2.668377637863159,0.0
27,1,27,-1,1,-0.9451799090338173,0.382037894814105,1.4580973633847119,0.6478202858255718,0.826347535536586,2.1903553009033203,1.0
28,1,28,-1,1,0.3655378560657315,0.382037894814105,1.4580973633847119,0.6350910013383316,0.826347535536586,1.2443456649780273,1.0
29,1,29,1,-1,-1.4012297893104328,-0.0020006566054523722,1.4580973633847119,0.652249300843898,0.826347535536586,1.0183477401733398,1.0
30,1,30,-1,1,0.09655911263084677,0.382037894814105,1.4580973633847119,0.6377032394855295,0.826347535536586,1.8083384037017822,1.0
31,1,31,-1,-1,-0.6090288905344078,0.6278438724316042,1.4580973633847119,0.6445556913727534,0.826347535536586,1.0283477306365967,1.0
32,1,32,-1,1,-0.8644570167119783,0.382037894814105,1.4580973633847119,0.6470363301271309,0.826347535536586,7.237065315246582,1.0
33,1,33,1,-1,-0.07106036993748238,-0.0020006566054523722,1.4580973633847119,0.6393311079222209,0.826347535536586,2.5243709087371826,1.0
34,1,34,-1,-1,0.9063975624143348,0.6278438724316042,1.4580973633847119,0.629838339588322,0.826347535536586,1.1183472871780396,1.0
35,1,35,-1,1,1.1000694752694962,0.382037894814105,1.4580973633847119,0.6279574580274208,0.826347535536586,1.4413431882858276,1.0
36,1,36,1,-1,0.07128758864205105,-0.0020006566054523722,1.4580973633847119,0.6379486686899282,0.826347535536586,6.891090393066406,0.0
37,1,37,-1,1,-0.5637158358336518,0.382037894814105,1.4580973633847119,0.6441156250368645,0.826347535536586,1.826338291168213,1.0
38,1,38,1,-1,-1.0458036973475338,-0.0020006566054523722,1.4580973633847119,0.6487975128547117,0.826347535536586,2.92537784576416,1.0
39,1,39,1,-1,0.3923529735729381,-0.0020006566054523722,1.4580973633847119,0.6348305812323433,0.826347535536586,1.0653477907180786,1.0
40,1,40,1,-1,-0.04502083566134619,-0.0020006566054523722,1.4580973633847119,0.6390782200400681,0.826347535536586,2.433366537094116,1.0
41,1,41,1,1,-0.39778348242178097,-0.24780663422295165,1.4580973633847119,0.6425041414753698,0.826347535536586,4.3262763023376465,0.0
42,1,42,1,1,1.9273668157624937,-0.24780663422295165,1.4580973633847119,0.6199230027975623,0.826347535536586,2.4323666095733643,0.0
43,1,43,-1,-1,0.9945412633492952,0.6278438724316042,1.4580973633847119,0.6289823152977883,0.826347535536586,5.333203315734863,1.0
44,1,44,1,1,-0.8686937432760984,-0.24780663422295165,1.4580973633847119,0.6470774759017326,0.826347535536586,1.863339900970459,0.0
45,1,45,-1,-1,-0.06837734920617858,0.6278438724316042,1.4580973633847119,0.6393050512568706,0.826347535536586,2.2473578453063965,1.0
46,1,46,1,1,1.876364645060128,-0.24780663422295165,1.4580973633847119,0.6204183200638906,0.826347535536586,1.5513417720794678,0.0
47,1,47,1,-1,-1.429020617854609,-0.0020006566054523722,1.4580973633847119,0.6525191967529139,0.826347535536586,1.5123422145843506,1.0
48,1,48,-1,-1,0.26327428620120497,0.6278438724316042,1.4580973633847119,0.6360841534174044,0.826347535536586,1.443343162536621,1.0
49,1,49,-1,1,-1.7294034084453316,0.382037894814105,1.4580973633847119,0.6554364212678422,0.826347535536586,1.9413435459136963,1.0
50,1,50,1,-1,-0.6030855001734706,-0.0020006566054523722,1.4580973633847119,0.6444979710085853,0.826347535536586,5.854165554046631,1.0
51,1,51,-1,1,0.6184183756979605,0.382037894814105,1.4580973633847119,0.6326351041487217,0.826347535536586,2.128352403640747,1.0
52,1,52,-1,-1,0.8645236201513536,0.6278438724316042,1.4580973633847119,0.6302450063306677,0.826347535536586,4.767244338989258,1.0
53,1,53,-1,1,1.8807691571241005,0.382037894814105,1.4580973633847119,0.6203755448085438,0.826347535536586,1.348344326019287,1.0
54,1,54,-1,-1,-2.0898158236449484,0.6278438724316042,1.4580973633847119,0.6589366348820682,0.826347535536586,1.381343960762024,1.0
55,1,55,-1,1,-0.059382539150763566,0.382037894814105,1.4580973633847119,0.6392176964508607,0.826347535536586,3.4993362426757812,0.0
56,1,56,1,-1,-0.5133035144631093,-0.0020006566054523722,1.4580973633847119,0.6436260362043372,0.826347535536586,3.6193275451660156,1.0
57,1,57,-1,1,-1.7694141527960148,0.382037894814105,1.4580973633847119,0.6558249932098327,0.826347535536586,6.103147506713867,1.0
58,1,58,-1,1,-1.875757082262277,0.382037894814105,1.4580973633847119,0.6568577627643674,0.826347535536586,6.830094814300537,0.0
59,1,59,1,-1,-0.6204050629898946,-0.0020006566054523722,1.4580973633847119,0.6446661732319435,0.826347535536586,1.496342420578003,1.0
60,1,60,-1,-1,0.14210677657271298,0.6278438724316042,1.4580973633847119,0.6372608946974422,0.826347535536586,1.075347900390625,1.0
61,1,61,1,1,0.7800739937821883,-0.24780663422295165,1.4580973633847119,0.6310651549145336,0.826347535536586,4.577258110046387,0.0
62,1,62,-1,-1,0.3411957676358966,0.6278438724316042,1.4580973633847119,0.6353274041527952,0.826347535536586,1.774338960647583,0.0
63,1,63,1,1,-0.8595313274801598,-0.24780663422295165,1.4580973633847119,0.6469884933607445,0.826347535536586,4.7962422370910645,1.0
64,1,64,1,1,-0.4194050595406481,-0.24780663422295165,1.4580973633847119,0.642714123527599,0.826347535536586,5.386199474334717,0.0
65,1,65,-1,1,0.6852312939800063,0.382037894814105,1.4580973633847119,0.6319862378047378,0.826347535536586,2.367363452911377,1.0
66,1,66,-1,-1,-1.7558620132645715,0.6278438724316042,1.4580973633847119,0.6556933790331579,0.826347535536586,1.5103423595428467,1.0
67,1,67,-1,-1,0.2017265820667054,0.6278438724316042,1.4580973633847119,0.6366818856343055,0.826347535536586,1.0473477840423584,1.0
68,1,68,1,1,0.7991836821786767,-0.24780663422295165,1.4580973633847119,0.6308795675466513,0.826347535536586,1.0813478231430054,0.0
69,1,69,-1,1,0.10399324839120253,0.382037894814105,1.4580973633847119,0.6376310414643155,0.826347535536586,1.3803439140319824,1.0
70,1,70,1,-1,-1.8920403232074545,-0.0020006566054523722,1.4580973633847119,0.6570159005510706,0.826347535536586,2.314361095428467,1.0
71,1,71,-1,-1,0.19072414386908304,0.6278438724316042,1.4580973633847119,0.6367887379022765,0.826347535536586,1.4653428792953491,0.0
72,1,72,1,1,0.2759180455025759,-0.24780663422295165,1.4580973633847119,0.6359613611478397,0.826347535536586,1.893341302871704,1.0
73,1,73,-1,1,1.2644555231155479,0.382037894814105,1.4580973633847119,0.6263609917060793,0.826347535536586,1.5943412780761719,1.0
74,1,74,-1,-1,-0.2155025001963396,0.6278438724316042,1.4580973633847119,0.6407338851004706,0.826347535536586,1.8273382186889648,1.0
75,1,75,1,1,2.90909178759845,-0.24780663422295165,1.4580973633847119,0.6103887942993822,0.826347535536586,2.5283710956573486,0.0
76,1,76,1,-1,0.9314213703316516,-0.0020006566054523722,1.4580973633847119,0.6295953161255939,0.826347535536586,4.08729362487793,1.0
77,1,77,-1,-1,-1.1514397293390632,0.6278438724316042,1.4580973633847119,0.6498234172401773,0.826347535536586,1.4283432960510254,1.0
78,1,78,-1,-1,-0.39575965428790516,0.6278438724316042,1.4580973633847119,0.6424844866841132,0.826347535536586,1.2073462009429932,1.0
79,1,79,1,-1,0.1989321207415517,-0.0020006566054523722,1.4580973633847119,0.6367090245761461,0.826347535536586,1.9813454151153564,0.0
80,1,80,-1,-1,-0.6543514180886808,0.6278438724316042,1.4580973633847119,0.6449958497060582,0.826347535536586,1.0443477630615234,1.0
81,1,81,1,-1,-0.038727894974635024,-0.0020006566054523722,1.4580973633847119,0.63901710495153,0.826347535536586,2.7393808364868164,1.0
82,1,82,1,-1,0.8002081331733814,-0.0020006566054523722,1.4580973633847119,0.6308696183962682,0.826347535536586,3.1343626976013184,0.0
83,1,83,-1,-1,-0.6124569389651119,0.6278438724316042,1.4580973633847119,0.6445889835160907,0.826347535536586,1.4633429050445557,1.0
84,1,84,1,-1,0.16893903232088509,-0.0020006566054523722,1.4580973633847119,0.6370003081501722,0.826347535536586,6.33513069152832,1.0
85,1,85,1,1,0.5398121291159402,-0.24780663422295165,1.4580973633847119,0.6333985036400994,0.826347535536586,1.9393434524536133,0.0
86,1,86,1,1,0.03397350120515123,-0.24780663422295165,1.4580973633847119,0.6383110515361925,0.826347535536586,5.545187950134277,0.0
87,1,87,-1,-1,0.07757754927197798,0.6278438724316042,1.4580973633847119,0.6378875825427774,0.826347535536586,2.0073466300964355,1.0
88,1,88,-1,1,-0.20993776548577886,0.382037894814105,1.4580973633847119,0.6406798421225596,0.826347535536586,1.5513417720794678,1.0
89,1,89,1,1,-0.7717911399365049,-0.24780663422295165,1.4580973633847119,0.6461363878671395,0.826347535536586,6.370128154754639,0.0
90,1,90,1,-1,-0.2804397731606008,-0.0020006566054523722,1.4580973633847119,0.641364535758757,0.826347535536586,1.5513417720794678,0.0
91,1,91,-1,-1,-0.4306808064267393,0.6278438724316042,1.4580973633847119,0.6428236300848007,0.826347535536586,2.8303847312927246,1.0
92,1,92,1,-1,-0.847091245975645,-0.0020006566054523722,1.4580973633847119,0.6468676791467833,0.826347535536586,2.397364854812622,0.0
93,1,93,-1,-1,1.3932440083403388,0.6278438724316042,1.4580973633847119,0.6251102378742789,0.826347535536586,2.594374179840088,1.0
94,1,94,-1,-1,0.986605331758655,0.6278438724316042,1.4580973633847119,0.6290593866045016,0.826347535536586,7.302060604095459,1.0
95,1,95,1,-1,-1.756951005552185,-0.0020006566054523722,1.4580973633847119,0.6557039549885638,0.826347535536586,1.0823477506637573,1.0
96,1,96,1,1,1.7173016155523846,-0.24780663422295165,1.4580973633847119,0.6219630908817735,0.826347535536586,2.3213613033294678,0.0
97,1,97,-1,-1,-1.7023565550436661,0.6278438724316042,1.4580973633847119,0.6551737506147072,0.826347535536586,1.5713415145874023,1.0
98,1,98,-1,1,-0.030629749801116643,0.382037894814105,1.4580973633847119,0.6389384582768015,0.826347535536586,4.7732439041137695,1.0
99,1,99,-1,1,-0.11187818195956246,0.382037894814105,1.4580973633847119,0.6397275178551681,0.826347535536586,2.371363639831543,1.0
100,1,100,1,-1,-1.303362725123615,-0.0020006566054523722,1.4580973633847119,0.6512988462646313,0.826347535536586,2.671377658843994,0.0
101,1,101,1,-1,-1.3789895621833645,-0.0020006566054523722,1.4580973633847119,0.6520333106546295,0.826347535536586,4.098292827606201,1.0
102,1,102,-1,-1,-1.0598850234724257,0.6278438724316042,1.4580973633847119,0.6489342663274837,0.826347535536586,2.120352029800415,0.0
103,1,103,-1,1,-2.2675518241804764,0.382037894814105,1.4580973633847119,0.6606627518041724,0.826347535536586,2.0153470039367676,1.0
104,1,104,1,1,0.06173253310252334,-0.24780663422295165,1.4580973633847119,0.6380414644263503,0.826347535536586,4.33827543258667,0.0
105,1,105,-1,-1,-0.11781522279147505,0.6278438724316042,1.4580973633847119,0.6397851765546793,0.826347535536586,1.1693466901779175,1.0
106,1,106,-1,-1,-1.6546827709607979,0.6278438724316042,1.4580973633847119,0.6547107576071103,0.826347535536586,4.7962422370910645,1.0
107,1,107,-1,-1,0.24999817003879832,0.6278438724316042,1.4580973633847119,0.6362130869407127,0.826347535536586,1.8023386001586914,1.0
108,1,108,-1,1,0.8568956428818321,0.382037894814105,1.4580973633847119,0.6303190868805095,0.826347535536586,1.2663453817367554,1.0
109,1,109,-1,1,-2.8330776157809097,0.382037894814105,1.4580973633847119,0.666154962925311,0.826347535536586,1.891341209411621,1.0
110,1,110,-1,1,0.002745568900944434,0.382037894814105,1.4580973633847119,0.6386143275310963,0.826347535536586,1.6293407678604126,1.0
111,1,111,-1,-1,1.2622848358317162,0.6278438724316042,1.4580973633847119,0.62638207274786,0.826347535536586,1.164346694946289,1.0
112,1,112,1,1,0.09633726635302947,-0.24780663422295165,1.4580973633847119,0.6377053939877863,0.826347535536586,1.657340407371521,0.0
113,1,113,-1,-1,-0.699262494934108,0.6278438724316042,1.4580973633847119,0.6454320121576674,0.826347535536586,2.1983556747436523,1.0
114,1,114,-1,-1,0.7820586899352427,0.6278438724316042,1.4580973633847119,0.6310458801609401,0.826347535536586,1.5663416385650635,1.0
115,1,115,1,1,-0.7607009040773902,-0.24780663422295165,1.4580973633847119,0.6460286829355056,0.826347535536586,1.849339246749878,1.0
116,1,116,1,1,-0.11836682066851183,-0.24780663422295165,1.4580973633847119,0.6397905335022132,0.826347535536586,1.9063420295715332,0.0
117,1,117,1,-1,1.1058145216177035,-0.0020006566054523722,1.4580973633847119,0.6279016639187989,0.826347535536586,3.2803521156311035,1.0
118,1,118,1,-1,-2.069600323384299,-0.0020006566054523722,1.4580973633847119,0.6587403082122681,0.826347535536586,1.638340711593628,1.0
119,1,119,-1,-1,0.5707493043724329,0.6278438724316042,1.4580973633847119,0.6330980513874807,0.826347535536586,2.344362497329712,1.0
120,1,120,1,1,1.2695287415064933,-0.24780663422295165,1.4580973633847119,0.6263117221822475,0.826347535536586,1.167346715927124,1.0
121,1,121,1,1,1.943261750418448,-0.24780663422295165,1.4580973633847119,0.6197686361211281,0.826347535536586,2.350362777709961,0.0
122,1,122,1,1,0.2091235634052554,-0.24780663422295165,1.4580973633847119,0.6366100484453145,0.826347535536586,3.738318920135498,0.0
123,1,123,-1,1,0.2755086901480972,0.382037894814105,1.4580973633847119,0.6359653366801032,0.826347535536586,2.0593490600585938,1.0
124,1,124,-1,-1,0.450473624861489,0.6278438724316042,1.4580973633847119,0.6342661314899691,0.826347535536586,1.561341643333435,1.0
125,1,125,1,1,0.518792677903546,-0.24780663422295165,1.4580973633847119,0.6336026380322414,0.826347535536586,6.336130619049072,0.0
126,1,126,-1,1,-0.9247317008585694,0.382037894814105,1.4580973633847119,0.6476216991686669,0.826347535536586,2.0113468170166016,1.0
127,1,127,1,1,0.04780865413763748,-0.24780663422295165,1.4580973633847119,0.638176688821128,0.826347535536586,5.199213027954102,1.0
128,1,128,1,-1,0.39866816991209864,-0.0020006566054523722,1.4580973633847119,0.63476925000381,0.826347535536586,1.5693415403366089,1.0
129,1,129,-1,-1,1.0297381603314384,0.6278438724316042,1.4580973633847119,0.6286404939486897,0.826347535536586,1.6623404026031494,1.0
130,1,130,-1,-1,-0.3303920416015663,0.6278438724316042,1.4580973633847119,0.6418496566998924,0.826347535536586,1.9653446674346924,1.0
131,1,131,-1,1,0.7515795159864147,0.382037894814105,1.4580973633847119,0.6313418844468828,0.826347535536586,0.9393475651741028,1.0
132,1,132,-1,1,-0.17978658911554773,0.382037894814105,1.4580973633847119,0.6403870232473897,0.826347535536586,4.4122700691223145,1.0
133,1,133,-1,1,-2.035088363836444,0.382037894814105,1.4580973633847119,0.6584051387631356,0.826347535536586,3.4123425483703613,1.0
134,1,134,-1,-1,0.5410340204548056,0.6278438724316042,1.4580973633847119,0.633386637010319,0.826347535536586,1.3203446865081787,1.0
135,1,135,1,1,-2.165773558039212,-0.24780663422295165,1.4580973633847119,0.6596743128443695,0.826347535536586,2.7663822174072266,0.0
136,1,136,1,-1,-0.36130555920630675,-0.0020006566054523722,1.4580973633847119,0.6421498791967334,0.826347535536586,4.71724796295166,1.0
137,1,137,1,-1,-0.9882246320038789,-0.0020006566054523722,1.4580973633847119,0.6482383228270912,0.826347535536586,1.7503392696380615,1.0
138,1,138,-1,-1,0.051399651460457704,0.6278438724316042,1.4580973633847119,0.6381418141686801,0.826347535536586,1.2093461751937866,1.0
139,1,139,1,-1,-1.856734305342866,-0.0020006566054523722,1.4580973633847119,0.6566730194537995,0.826347535536586,1.816338300704956,1.0
140,1,140,1,-1,-0.10496456002007576,-0.0020006566054523722,1.4580973633847119,0.6396603749027734,0.826347535536586,1.9523441791534424,0.0
141,1,141,-1,-1,-2.0779097259688553,0.6278438724316042,1.4580973633847119,0.6588210065534628,0.826347535536586,2.625375509262085,1.0
142,1,142,-1,1,0.9200223944979465,0.382037894814105,1.4580973633847119,0.6297060194441222,0.826347535536586,1.6493405103683472,1.0
143,1,143,-1,1,0.14806860581458745,0.382037894814105,1.4580973633847119,0.6372029952605803,0.826347535536586,1.5743415355682373,1.0
144,1,144,-1,-1,0.7525637456105291,0.6278438724316042,1.4580973633847119,0.6313323259139784,0.826347535536586,1.2423456907272339,1.0
145,1,145,1,1,-0.697988025444665,-0.24780663422295165,1.4580973633847119,0.6454196349051929,0.826347535536586,1.6433405876159668,1.0
146,1,146,-1,1,1.139825154087606,0.382037894814105,1.4580973633847119,0.6275713632027881,0.826347535536586,1.676340103149414,1.0
147,1,147,-1,-1,-1.2944048281971603,0.6278438724316042,1.4580973633847119,0.6512118499474833,0.826347535536586,1.5013424158096313,1.0
148,1,148,1,-1,-1.1000072531316736,-0.0020006566054523722,1.4580973633847119,0.6493239209802198,0.826347535536586,2.076349973678589,0.0
149,1,149,1,-1,0.3852939180348628,-0.0020006566054523722,1.4580973633847119,0.6348991365907493,0.826347535536586,2.4383668899536133,1.0
150,1,150,1,1,-0.8444827187399254,-0.24780663422295165,1.4580973633847119,0.646842345939162,0.826347535536586,3.9843010902404785,0.0
151,1,151,-1,-1,0.09968072149105021,0.6278438724316042,1.4580973633847119,0.6376729233882754,0.826347535536586,4.8172407150268555,1.0
152,1,152,1,1,-0.49636251778166174,-0.24780663422295165,1.4580973633847119,0.6434615104978904,0.826347535536586,2.60237455368042,0.0
153,1,153,-1,1,-0.8014599582680586,0.382037894814105,1.4580973633847119,0.6464245222306146,0.826347535536586,1.5523416996002197,1.0
154,1,154,-1,-1,-0.5985288429951676,0.6278438724316042,1.4580973633847119,0.6444537181670675,0.826347535536586,1.3703441619873047,1.0
155,1,155,1,1,0.8255316325476679,-0.24780663422295165,1.4580973633847119,0.630623684423043,0.826347535536586,2.2383575439453125,0.0
156,1,156,-1,1,-1.335255479415358,0.382037894814105,1.4580973633847119,0.6516085788045198,0.826347535536586,8.82395076751709,0.0
157,1,157,-1,-1,0.4946678527445094,0.6278438724316042,1.4580973633847119,0.6338369308531913,0.826347535536586,1.3613442182540894,1.0
158,1,158,1,1,-0.9905727836704659,-0.24780663422295165,1.4580973633847119,0.6482611273479263,0.826347535536586,1.9063420295715332,0.0
159,1,159,1,1,0.7982021750525296,-0.24780663422295165,1.4580973633847119,0.6308890996394997,0.826347535536586,2.1993556022644043,1.0
160,1,160,1,1,-0.46650196230606855,-0.24780663422295165,1.4580973633847119,0.643171514042729,0.826347535536586,4.264280796051025,1.0
161,1,161,1,-1,0.3396126413249289,-0.0020006566054523722,1.4580973633847119,0.6353427789846073,0.826347535536586,1.073347806930542,1.0
162,1,162,1,1,0.4532499965893853,-0.24780663422295165,1.4580973633847119,0.6342391682286876,0.826347535536586,1.879340648651123,1.0
163,1,163,-1,-1,-0.7319439269305971,0.6278438724316042,1.4580973633847119,0.6457494040908592,0.826347535536586,2.0013463497161865,0.0
164,1,164,1,-1,0.21788119158417302,-0.0020006566054523722,1.4580973633847119,0.6365249970761402,0.826347535536586,1.793338656425476,1.0
165,1,165,-1,1,1.288279042882327,0.382037894814105,1.4580973633847119,0.6261296250696656,0.826347535536586,2.388364553451538,1.0
166,1,166,-1,1,-0.5251835424855831,0.382037894814105,1.4580973633847119,0.6437414113525508,0.826347535536586,4.1982855796813965,1.0
167,1,167,-1,1,-0.8431248913333186,0.382037894814105,1.4580973633847119,0.6468291591404449,0.826347535536586,2.1803548336029053,1.0
168,1,168,1,1,1.7468396602510212,-0.24780663422295165,1.4580973633847119,0.6216762265512689,0.826347535536586,1.8273382186889648,0.0
169,1,169,-1,1,0.06333950731284844,0.382037894814105,1.4580973633847119,0.6380258579911348,0.826347535536586,2.5503721237182617,1.0
170,1,170,1,-1,-0.05756745319677282,-0.0020006566054523722,1.4580973633847119,0.6392000688989251,0.826347535536586,2.4423670768737793,1.0
171,1,171,1,-1,-0.07273573007903003,-0.0020006566054523722,1.4580973633847119,0.6393473785003944,0.826347535536586,1.5193421840667725,1.0
172,1,172,-1,-1,-0.26276746326536704,0.6278438724316042,1.4580973633847119,0.6411929077651545,0.826347535536586,1.1793465614318848,1.0
173,1,173,-1,1,-1.3054983616559,0.382037894814105,1.4580973633847119,0.6513195869043821,0.826347535536586,1.5753414630889893,1.0
174,1,174,-1,-1,-0.1979457789292351,0.6278438724316042,1.4580973633847119,0.640563379667781,0.826347535536586,4.431268692016602,1.0
175,1,175,-1,1,-1.601180656437342,0.382037894814105,1.4580973633847119,0.6541911616616122,0.826347535536586,1.536341905593872,1.0
176,1,176,-1,-1,-0.9328250847243661,0.6278438724316042,1.4580973633847119,0.6477002996030512,0.826347535536586,1.499342441558838,1.0
177,1,177,-1,1,1.0435439406016196,0.382037894814105,1.4580973633847119,0.6285064164918132,0.826347535536586,2.100351095199585,1.0
178,1,178,-1,-1,0.09595626140206952,0.6278438724316042,1.4580973633847119,0.6377090941897221,0.826347535536586,1.2493456602096558,1.0
179,1,179,1,-1,-1.6711189630871364,-0.0020006566054523722,1.4580973633847119,0.6548703808082554,0.826347535536586,2.9583754539489746,0.0
180,1,180,1,-1,-0.9755510449268351,-0.0020006566054523722,1.4580973633847119,0.6481152408794185,0.826347535536586,5.376200199127197,0.0
181,1,181,1,1,0.16288909267409196,-0.24780663422295165,1.4580973633847119,0.637059063287964,0.826347535536586,1.9063420295715332,0.0
182,1,182,-1,1,0.3884802850854515,0.382037894814105,1.4580973633847119,0.6348681915820313,0.826347535536586,1.636340618133545,1.0
183,1,183,1,-1,1.331001848639486,-0.0020006566054523722,1.4580973633847119,0.625714714428293,0.826347535536586,3.4353408813476562,1.0
184,1,184,1,1,0.5284785411123832,-0.24780663422295165,1.4580973633847119,0.6335085719322977,0.826347535536586,1.8983416557312012,1.0
185,1,185,-1,1,-1.2498464977207249,0.382037894814105,1.4580973633847119,0.6507791132592246,0.826347535536586,0.9913476705551147,1.0
186,1,186,1,-1,-1.1868949339922001,-0.0020006566054523722,1.4580973633847119,0.6501677471932766,0.826347535536586,1.2783452272415161,1.0
187,1,187,1,1,1.1378860021242656,-0.24780663422295165,1.4580973633847119,0.6275901956453341,0.826347535536586,4.0902934074401855,0.0
188,1,188,-1,-1,-1.3758905420156091,0.6278438724316042,1.4580973633847119,0.6520032139317519,0.826347535536586,1.233345866203308,1.0
189,1,189,-1,1,0.47606686632278017,0.382037894814105,1.4580973633847119,0.6340175778652407,0.826347535536586,1.1623467206954956,1.0
190,1,190,1,1,-1.7632203814936993,-0.24780663422295165,1.4580973633847119,0.6557648412236039,0.826347535536586,2.358363151550293,0.0
191,1,191,-1,-1,0.7892226248424942,0.6278438724316042,1.4580973633847119,0.6309763062466234,0.826347535536586,3.805314064025879,1.0
192,1,192,-1,1,-1.1938106344555128,0.382037894814105,1.4580973633847119,0.6502349103316502,0.826347535536586,1.538341999053955,1.0
193,1,193,1,-1,0.6422660079083241,-0.0020006566054523722,1.4580973633847119,0.6324035033397332,0.826347535536586,2.2903599739074707,1.0
194,1,194,-1,-1,-0.8404665623486095,0.6278438724316042,1.4580973633847119,0.6468033422736807,0.826347535536586,3.866309642791748,0.0
195,1,195,1,-1,-1.2883938253507004,-0.0020006566054523722,1.4580973633847119,0.6511534729518221,0.826347535536586,1.6933399438858032,1.0
196,1,196,-1,-1,0.2854279542763405,0.6278438724316042,1.4580973633847119,0.6358690038628069,0.826347535536586,1.4863426685333252,1.0
197,1,197,-1,-1,-1.3175710138972365,0.6278438724316042,1.4580973633847119,0.6514368327592773,0.826347535536586,3.4693384170532227,1.0
198,1,198,-1,-1,-0.06063932972581994,0.6278438724316042,1.4580973633847119,0.6392299020112008,0.826347535536586,5.147216796875,0.0
199,1,199,-1,-1,-0.7441901568766086,0.6278438724316042,1.4580973633847119,0.6458683356785966,0.826347535536586,1.1153473854064941,1.0
200,1,200,1,-1,-0.026040118163434156,-0.0020006566054523722,1.4580973633847119,0.6388938851975594,0.826347535536586,5.7361741065979,1.0
201,1,201,1,-1,0.3027679147301019,-0.0020006566054523722,1.4580973633847119,0.63570060354392,0.826347535536586,2.0073466300964355,1.0
202,1,202,1,1,-0.6170379771034169,-0.24780663422295165,1.4580973633847119,0.6446334731379316,0.826347535536586,0.993347704410553,1.0
203,1,203,1,-1,0.11574469033365643,-0.0020006566054523722,1.4580973633847119,0.6375169151042371,0.826347535536586,1.2223459482192993,1.0
204,1,204,-1,1,-1.1893955767824418,0.382037894814105,1.4580973633847119,0.6501920326606179,0.826347535536586,2.1813547611236572,1.0
205,1,205,1,1,-1.2710525946996452,-0.24780663422295165,1.4580973633847119,0.6509850602971731,0.826347535536586,1.1443469524383545,1.0
206,1,206,-1,-1,-0.8883488089091335,0.6278438724316042,1.4580973633847119,0.6472683598042174,0.826347535536586,1.848339319229126,0.0
207,1,207,-1,1,2.0207836965038593,0.382037894814105,1.4580973633847119,0.619015767019937,0.826347535536586,3.522334575653076,1.0
208,1,208,-1,-1,-0.09145469180996242,0.6278438724316042,1.4580973633847119,0.6395291712520633,0.826347535536586,1.3743441104888916,1.0
209,1,209,1,-1,0.9508393420922812,-0.0020006566054523722,1.4580973633847119,0.6294067348052763,0.826347535536586,3.7683167457580566,0.0
210,1,210,-1,1,-0.12250627348454794,0.382037894814105,1.4580973633847119,0.6398307345843376,0.826347535536586,4.765244483947754,1.0
211,1,211,1,1,0.1863310400151178,-0.24780663422295165,1.4580973633847119,0.6368314023646254,0.826347535536586,2.095350742340088,0.0
212,1,212,1,1,-0.8766717487989605,-0.24780663422295165,1.4580973633847119,0.6471549558174288,0.826347535536586,1.2133461236953735,1.0
213,1,213,1,1,-0.3183673802969829,-0.24780663422295165,1.4580973633847119,0.6417328769180931,0.826347535536586,1.2833452224731445,1.0
214,1,214,-1,1,0.45420063196322824,0.382037894814105,1.4580973633847119,0.6342299359527245,0.826347535536586,1.7593390941619873,1.0
215,1,215,-1,1,1.0864822890812096,0.382037894814105,1.4580973633847119,0.628089412566359,0.826347535536586,2.108351469039917,0.0
216,1,216,1,-1,-1.8428685113589514,-0.0020006566054523722,1.4580973633847119,0.6565383591623452,0.826347535536586,1.636340618133545,1.0
217,1,217,1,1,0.30224066326766064,-0.24780663422295165,1.4580973633847119,0.6357057240466251,0.826347535536586,1.0863476991653442,1.0
218,1,218,1,1,-1.0298231482757205,-0.24780663422295165,1.4580973633847119,0.6486423147176192,0.826347535536586,2.398365020751953,0.0
219,1,219,-1,-1,0.39070629011007074,0.6278438724316042,1.4580973633847119,0.6348465733115058,0.826347535536586,3.9033069610595703,1.0
220,1,220,-1,-1,0.09239365645304344,0.6278438724316042,1.4580973633847119,0.6377436931042401,0.826347535536586,2.156353712081909,1.0
221,1,221,1,-1,0.44466281923450635,-0.0020006566054523722,1.4580973633847119,0.6343225642323149,0.826347535536586,3.8573102951049805,1.0
222,1,222,-1,1,-0.6192652904785602,0.382037894814105,1.4580973633847119,0.6446551041147516,0.826347535536586,1.885340929031372,1.0
223,1,223,-1,1,-0.25418334345499355,0.382037894814105,1.4580973633847119,0.6411095414554513,0.826347535536586,9.787338256835938,0.0
224,1,224,1,1,1.284127145921487,-0.24780663422295165,1.4580973633847119,0.6261699470054656,0.826347535536586,1.4753427505493164,0.0
225,1,225,-1,1,-0.411326261972641,0.382037894814105,1.4580973633847119,0.6426356647508156,0.826347535536586,1.882340908050537,1.0
226,1,226,-1,-1,0.863606922886076,0.6278438724316042,1.4580973633847119,0.6302539090102446,0.826347535536586,1.10134756565094,1.0
227,1,227,-1,1,0.8247209144746293,0.382037894814105,1.4580973633847119,0.6306315578655685,0.826347535536586,1.1733466386795044,1.0
228,1,228,-1,1,-0.536632306002491,0.382037894814105,1.4580973633847119,0.6438525981936194,0.826347535536586,1.3343446254730225,1.0
229,1,229,1,-1,1.2691917820567682,-0.0020006566054523722,1.4580973633847119,0.6263149946279337,0.826347535536586,1.1033475399017334,0.0
230,1,230,1,1,0.2575541840698933,-0.24780663422295165,1.4580973633847119,0.636139705275527,0.826347535536586,1.7643389701843262,0.0
231,1,231,-1,1,-0.8811796778633406,0.382037894814105,1.4580973633847119,0.6471987354266144,0.826347535536586,1.4013437032699585,1.0
232,1,232,1,1,-1.188045148621822,-0.24780663422295165,1.4580973633847119,0.6501789177210834,0.826347535536586,3.4333410263061523,0.0
233,1,233,-1,1,-0.2685860990429174,0.382037894814105,1.4580973633847119,0.6412494165514945,0.826347535536586,1.2923450469970703,1.0
234,1,234,1,-1,-0.02841585101670456,-0.0020006566054523722,1.4580973633847119,0.6389169575783269,0.826347535536586,2.61537504196167,0.0
235,1,235,-1,-1,-1.4893497536577136,0.6278438724316042,1.4580973633847119,0.6531050946120528,0.826347535536586,2.137352705001831,1.0
236,1,236,-1,-1,-0.18024251991790952,0.6278438724316042,1.4580973633847119,0.6403914511059603,0.826347535536586,2.4163658618927,1.0
237,1,237,1,1,2.281312512348317,-0.24780663422295165,1.4580973633847119,0.6164855919492145,0.826347535536586,1.7093397378921509,0.0
238,1,238,-1,-1,1.4105284986648314,0.6278438724316042,1.4580973633847119,0.6249423762640864,0.826347535536586,2.658377170562744,1.0
239,1,239,-1,-1,0.5335502339503455,0.6278438724316042,1.4580973633847119,0.6334593172241635,0.826347535536586,1.7333394289016724,1.0
240,1,240,1,-1,-0.3300165274200255,-0.0020006566054523722,1.4580973633847119,0.6418460098226064,0.826347535536586,1.2053462266921997,1.0
241,1,241,-1,1,1.0304068347042366,0.382037894814105,1.4580973633847119,0.6286339999905338,0.826347535536586,3.1553611755371094,1.0
242,1,242,-1,1,2.1529421307411525,0.382037894814105,1.4580973633847119,0.6177322852883325,0.826347535536586,2.5013697147369385,1.0
243,1,243,-1,-1,-0.3715421639818764,0.6278438724316042,1.4580973633847119,0.6422492939279908,0.826347535536586,1.5223422050476074,1.0
244,1,244,1,-1,1.2493682091346032,-0.0020006566054523722,1.4580973633847119,0.6265075150209571,0.826347535536586,1.4153435230255127,0.0
245,1,245,-1,1,1.804690226549716,0.382037894814105,1.4580973633847119,0.6211143997905642,0.826347535536586,2.42936635017395,0.0
246,1,246,1,1,2.066039053848992,-0.24780663422295165,1.4580973633847119,0.6185762610228742,0.826347535536586,2.0083467960357666,0.0
247,1,247,-1,-1,-1.0979841375856334,0.6278438724316042,1.4580973633847119,0.6493042731093953,0.826347535536586,1.6943399906158447,1.0
248,1,248,-1,-1,-0.3114637465835748,0.6278438724316042,1.4580973633847119,0.6416658309682528,0.826347535536586,2.8553829193115234,1.0
249,1,249,-1,1,-0.14944635564626468,0.382037894814105,1.4580973633847119,0.6400923683082996,0.826347535536586,3.0473690032958984,0.0
250,1,250,-1,-1,0.4468783317969549,0.6278438724316042,1.4580973633847119,0.6343010478613285,0.826347535536586,2.4243662357330322,0.0
251,1,251,1,1,0.24768844898323839,-0.24780663422295165,1.4580973633847119,0.6362355182353706,0.826347535536586,3.445340156555176,0.0
252,1,252,-1,1,0.2118560420795998,0.382037894814105,1.4580973633847119,0.6365835114597581,0.826347535536586,2.137352705001831,0.0
253,1,253,1,1,-1.1797699216110582,-0.24780663422295165,1.4580973633847119,0.6500985512824637,0.826347535536586,1.7633390426635742,0.0
254,1,254,-1,1,-0.7189354096710073,0.382037894814105,1.4580973633847119,0.645623069405114,0.826347535536586,2.2353572845458984,1.0
255,1,255,-1,-1,-1.359022302188926,0.6278438724316042,1.4580973633847119,0.6518393948173169,0.826347535536586,2.09035062789917,1.0
256,1,256,1,1,-0.529914716484769,-0.24780663422295165,1.4580973633847119,0.6437873590473161,0.826347535536586,3.8733091354370117,0.0
257,1,257,1,1,-0.1677589030128377,-0.24780663422295165,1.4580973633847119,0.6402702140896891,0.826347535536586,1.4203433990478516,1.0
258,1,258,1,1,-0.05080586873464675,-0.24780663422295165,1.4580973633847119,0.6391344024873644,0.826347535536586,2.5483720302581787,0.0
259,1,259,1,1,0.322461934349701,-0.24780663422295165,1.4580973633847119,0.6355093413323972,0.826347535536586,1.3213447332382202,1.0
260,1,260,-1,-1,0.502677004815907,0.6278438724316042,1.4580973633847119,0.6337591484518742,0.826347535536586,1.4853426218032837,1.0
261,1,261,-1,1,1.0581212809913412,0.382037894814105,1.4580973633847119,0.6283648458823128,0.826347535536586,3.7703166007995605,1.0
262,1,262,1,1,-1.5179069390325948,-0.24780663422295165,1.4580973633847119,0.6533824331409649,0.826347535536586,4.017298698425293,1.0
263,1,263,-1,-1,-0.027726376983671044,0.6278438724316042,1.4580973633847119,0.6389102616203207,0.826347535536586,1.3173447847366333,1.0
264,1,264,1,-1,-1.9117373145326926,-0.0020006566054523722,1.4580973633847119,0.657207191622877,0.826347535536586,1.7923386096954346,1.0
265,1,265,1,-1,1.06862520342353,-0.0020006566054523722,1.4580973633847119,0.6282628350448682,0.826347535536586,2.094350814819336,0.0
266,1,266,-1,-1,-2.2930807919077307,0.6278438724316042,1.4580973633847119,0.6609106812223269,0.826347535536586,5.827167510986328,1.0
267,1,267,1,-1,-0.640826658962986,-0.0020006566054523722,1.4580973633847119,0.6448645014393934,0.826347535536586,4.00029993057251,1.0
268,1,268,1,1,-0.005129940227486668,-0.24780663422295165,1.4580973633847119,0.6386908120335932,0.826347535536586,2.7293803691864014,0.0
269,1,269,1,1,2.2670464536492676,-0.24780663422295165,1.4580973633847119,0.6166241394874621,0.826347535536586,4.195285797119141,0.0
270,1,270,1,1,-0.5836313008452292,-0.24780663422295165,1.4580973633847119,0.644309037857365,0.826347535536586,3.331348419189453,0.0
271,1,271,1,1,0.4699335399081948,-0.24780663422295165,1.4580973633847119,0.6340771428294636,0.826347535536586,1.3633441925048828,0.0
272,1,272,1,1,-0.24764808697048418,-0.24780663422295165,1.4580973633847119,0.641046073071026,0.826347535536586,2.7193799018859863,1.0
273,1,273,1,1,0.8083751338862185,-0.24780663422295165,1.4580973633847119,0.6307903030178935,0.826347535536586,3.0493688583374023,1.0
274,1,274,-1,1,-1.6539275733152707,0.382037894814105,1.4580973633847119,0.6547034233617601,0.826347535536586,1.447343111038208,1.0
275,1,275,1,1,-0.37102753802925204,-0.24780663422295165,1.4580973633847119,0.642244296040322,0.826347535536586,2.4983696937561035,0.0
276,1,276,-1,1,-0.30849042678312916,0.382037894814105,1.4580973633847119,0.6416369550083633,0.826347535536586,2.5173704624176025,1.0
277,1,277,-1,1,-1.083803583269897,0.382037894814105,1.4580973633847119,0.649166555963204,0.826347535536586,1.854339599609375,1.0
278,1,278,1,-1,-0.7538056413962475,-0.0020006566054523722,1.4580973633847119,0.6459617182825349,0.826347535536586,3.9653024673461914,1.0
279,1,279,1,1,0.5272748056154025,-0.24780663422295165,1.4580973633847119,0.6335202622381716,0.826347535536586,2.370363712310791,0.0
280,1,280,-1,1,-0.288462872016743,0.382037894814105,1.4580973633847119,0.6414424536069226,0.826347535536586,1.4543430805206299,1.0
281,1,281,1,1,-0.08341338338805011,-0.24780663422295165,1.4580973633847119,0.6394510765582415,0.826347535536586,1.1153473854064941,1.0
282,1,282,-1,-1,-0.6123557801922821,0.6278438724316042,1.4580973633847119,0.6445880010934578,0.826347535536586,2.1833548545837402,1.0
283,1,283,1,-1,-0.3612863292344661,-0.0020006566054523722,1.4580973633847119,0.64214969244121,0.826347535536586,2.869381904602051,0.0
284,1,284,1,1,-2.2532128695786864,-0.24780663422295165,1.4580973633847119,0.6605234963235221,0.826347535536586,1.5583417415618896,1.0
285,1,285,-1,-1,-1.671691113733815,0.6278438724316042,1.4580973633847119,0.6548759373579148,0.826347535536586,1.1393470764160156,1.0
286,1,286,-1,-1,-0.20375378282649043,0.6278438724316042,1.4580973633847119,0.6406197852005965,0.826347535536586,1.5893412828445435,1.0
287,1,287,1,-1,-0.2836977645133447,-0.0020006566054523722,1.4580973633847119,0.641396176360487,0.826347535536586,3.6043286323547363,0.0
288,1,288,-1,-1,0.7602829753998606,0.6278438724316042,1.4580973633847119,0.6312573591479612,0.826347535536586,2.7093794345855713,1.0
289,1,289,1,1,-1.6262625466824239,-0.24780663422295165,1.4580973633847119,0.6544347492018964,0.826347535536586,2.2473578453063965,1.0
290,1,290,-1,-1,1.4895486486890157,0.6278438724316042,1.4580973633847119,0.624174957070828,0.826347535536586,2.7773826122283936,1.0
291,1,291,1,-1,-1.4044742760099809,-0.0020006566054523722,1.4580973633847119,0.652280810292624,0.826347535536586,1.9463438987731934,1.0
292,1,292,-1,-1,-1.285995458579378,0.6278438724316042,1.4580973633847119,0.6511301807574613,0.826347535536586,1.2133461236953735,1.0
293,1,293,1,1,1.109510197732109,-0.24780663422295165,1.4580973633847119,0.6278657726583875,0.826347535536586,1.6523404121398926,1.0
294,1,294,-1,1,1.2706510218482971,0.382037894814105,1.4580973633847119,0.6263008229435818,0.826347535536586,1.2653454542160034,1.0
295,1,295,-1,-1,1.2193652742749108,0.6278438724316042,1.4580973633847119,0.6267988942205457,0.826347535536586,1.2723453044891357,1.0
296,1,296,-1,-1,0.09559004903694536,0.6278438724316042,1.4580973633847119,0.6377126507306514,0.826347535536586,3.038369655609131,0.0
297,1,297,1,-1,1.0162262971236364,-0.0020006566054523722,1.4580973633847119,0.6287717169741986,0.826347535536586,1.6663403511047363,0.0
298,1,298,1,-1,1.9073873770168877,-0.0020006566054523722,1.4580973633847119,0.6201170369111297,0.826347535536586,6.315132141113281,0.0
299,1,299,-1,1,-0.16167543976336846,0.382037894814105,1.4580973633847119,0.6402111333810635,0.826347535536586,1.6963398456573486,0.0
300,1,300,-1,-1,-0.33964281442002553,0.6278438724316042,1.4580973633847119,0.6419394973368842,0.826347535536586,1.8973414897918701,1.0
301,1,301,1,-1,1.113135454986801,-0.0020006566054523722,1.4580973633847119,0.6278305652841051,0.826347535536586,4.33827543258667,1.0
302,1,302,1,-1,1.1871951211227634,-0.0020006566054523722,1.4580973633847119,0.6271113207721464,0.826347535536586,2.2053558826446533,0.0
303,1,303,-1,-1,0.6479743309056808,0.6278438724316042,1.4580973633847119,0.6323480658769068,0.826347535536586,1.329344630241394,1.0
304,1,304,1,1,-0.5075012207094088,-0.24780663422295165,1.4580973633847119,0.6435696861266653,0.826347535536586,2.2513580322265625,1.0
305,1,305,1,1,0.3416716045477588,-0.24780663422295165,1.4580973633847119,0.635322782972262,0.826347535536586,3.742318630218506,0.0
306,1,306,1,-1,-0.6847959994714549,-0.0020006566054523722,1.4580973633847119,0.6452915180397263,0.826347535536586,2.687378406524658,0.0
307,1,307,1,1,0.12438570740225624,-0.24780663422295165,1.4580973633847119,0.6374329962260056,0.826347535536586,3.828312397003174,0.0
308,1,308,1,1,-0.8484364552029324,-0.24780663422295165,1.4580973633847119,0.6468807434016557,0.826347535536586,3.2423548698425293,0.0
309,1,309,-1,1,0.3597158739981409,0.382037894814105,1.4580973633847119,0.6351475426228028,0.826347535536586,1.891341209411621,1.0
310,1,310,-1,-1,-0.25635946856886604,0.6278438724316042,1.4580973633847119,0.641130675307751,0.826347535536586,1.9793453216552734,1.0
311,1,311,-1,-1,-0.4088592443835923,0.6278438724316042,1.4580973633847119,0.6426117058410014,0.826347535536586,1.5263421535491943,1.0
312,1,312,-1,1,0.7640381722955558,0.382037894814105,1.4580973633847119,0.6312208898401791,0.826347535536586,3.9833011627197266,1.0
313,1,313,-1,1,1.838822049441767,0.382037894814105,1.4580973633847119,0.6207829221107541,0.826347535536586,1.2943450212478638,1.0
314,1,314,1,1,-1.4995242816164924,-0.24780663422295165,1.4580973633847119,0.6532039064725152,0.826347535536586,2.5673727989196777,0.0
315,1,315,-1,-1,0.35738079332439954,0.6278438724316042,1.4580973633847119,0.6351702202022087,0.826347535536586,5.210212230682373,1.0
316,1,316,1,-1,-0.09335898761756922,-0.0020006566054523722,1.4580973633847119,0.6395476651824336,0.826347535536586,3.1053647994995117,0.0
317,1,317,1,1,-0.052243032321960384,-0.24780663422295165,1.4580973633847119,0.6391483597744668,0.826347535536586,2.0233473777770996,0.0
318,1,318,-1,1,0.07770618045046557,0.382037894814105,1.4580973633847119,0.6378863333166599,0.826347535536586,1.5713415145874023,1.0
319,1,319,-1,-1,1.1843959832101574,0.6278438724316042,1.4580973633847119,0.6271385051315541,0.826347535536586,1.3663442134857178,1.0
320,1,320,1,1,-0.027573960692266017,-0.24780663422295165,1.4580973633847119,0.6389087814005622,0.826347535536586,3.3423476219177246,1.0
321,1,321,-1,1,-2.4584453271826723,0.382037894814105,1.4580973633847119,0.6625166503101534,0.826347535536586,2.5713729858398438,1.0
322,1,322,-1,1,-0.6317514540565459,0.382037894814105,1.4580973633847119,0.6447763658635205,0.826347535536586,2.072349786758423,0.0
323,1,323,-1,-1,-0.8969008118134598,0.6278438724316042,1.4580973633847119,0.6473514142044884,0.826347535536586,4.716248035430908,1.0
324,1,324,1,1,-1.870714485829084,-0.24780663422295165,1.4580973633847119,0.6568087906314936,0.826347535536586,1.8093384504318237,1.0
325,1,325,-1,1,-1.4376225529509892,0.382037894814105,1.4580973633847119,0.6526027360791504,0.826347535536586,2.7943835258483887,1.0
326,1,326,-1,-1,-1.3444157769391487,0.6278438724316042,1.4580973633847119,0.6516975407735057,0.826347535536586,6.322131633758545,1.0
327,1,327,-1,1,1.4668602698517506,0.382037894814105,1.4580973633847119,0.6243952995705361,0.826347535536586,1.2733453512191772,1.0
328,1,328,1,-1,-0.44570788039084136,-0.0020006566054523722,1.4580973633847119,0.6429695683673152,0.826347535536586,3.2323555946350098,0.0
329,1,329,1,-1,0.872680027548965,-0.0020006566054523722,1.4580973633847119,0.6301657938312857,0.826347535536586,2.2603585720062256,0.0
330,1,330,1,1,0.38016571776423963,-0.24780663422295165,1.4580973633847119,0.6349489400815468,0.826347535536586,1.4383432865142822,1.0
331,1,331,-1,1,-1.3151222527069895,0.382037894814105,1.4580973633847119,0.651413051149947,0.826347535536586,3.097365379333496,1.0
332,1,332,-1,1,0.353397798723908,0.382037894814105,1.4580973633847119,0.6352089018106608,0.826347535536586,2.9563755989074707,1.0
333,1,333,-1,1,-1.3396238197484218,0.382037894814105,1.4580973633847119,0.6516510027712328,0.826347535536586,1.03634774684906,1.0
334,1,334,-1,1,-0.0893557200315999,0.382037894814105,1.4580973633847119,0.6395087866890331,0.826347535536586,1.0683478116989136,1.0
335,1,335,-1,1,0.6538602101609805,0.382037894814105,1.4580973633847119,0.6322909040427629,0.826347535536586,2.676378011703491,1.0
336,1,336,-1,-1,-0.2559105515759039,0.6278438724316042,1.4580973633847119,0.6411263155651225,0.826347535536586,1.6433405876159668,1.0
337,1,337,1,1,0.04559315504271422,-0.24780663422295165,1.4580973633847119,0.6381982050613221,0.826347535536586,2.568372964859009,1.0
338,1,338,1,1,-0.48151711000992625,-0.24780663422295165,1.4580973633847119,0.6433173365011023,0.826347535536586,2.5043699741363525,0.0
339,1,339,-1,-1,-0.13488579798033595,0.6278438724316042,1.4580973633847119,0.6399509606874084,0.826347535536586,1.42534339427948,1.0
340,1,340,-1,1,-0.4250304845053956,0.382037894814105,1.4580973633847119,0.6427687559104389,0.826347535536586,3.5333337783813477,0.0
341,1,341,-1,1,-0.72292829198723,0.382037894814105,1.4580973633847119,0.6456618470399952,0.826347535536586,1.429343342781067,1.0
342,1,342,-1,-1,0.7121217870883689,0.6278438724316042,1.4580973633847119,0.6317250856742846,0.826347535536586,2.2643587589263916,1.0
343,1,343,1,1,1.0273682516556044,-0.24780663422295165,1.4580973633847119,0.6286635097668518,0.826347535536586,1.6413406133651733,1.0
344,1,344,1,1,-0.5402519049906074,-0.24780663422295165,1.4580973633847119,0.6438877506165713,0.826347535536586,5.780170917510986,1.0
345,1,345,-1,1,1.5638807195162168,0.382037894814105,1.4580973633847119,0.6234530670489794,0.826347535536586,1.6243407726287842,1.0
346,1,346,1,1,0.5952533001191735,-0.24780663422295165,1.4580973633847119,0.632860076179362,0.826347535536586,2.8543829917907715,0.0
347,1,347,1,1,1.7362555348577597,-0.24780663422295165,1.4580973633847119,0.6217790162950008,0.826347535536586,4.80924129486084,0.0
348,1,348,1,1,1.68214816389748,-0.24780663422295165,1.4580973633847119,0.6223044903033261,0.826347535536586,1.1823464632034302,1.0
349,1,349,-1,1,0.1368966552323757,0.382037894814105,1.4580973633847119,0.6373114937802655,0.826347535536586,1.37334406375885,1.0
350,1,350,-1,1,1.3302932069844904,0.382037894814105,1.4580973633847119,0.6257215965362999,0.826347535536586,1.5063424110412598,1.0
351,1,351,-1,1,0.5814875643824974,0.382037894814105,1.4580973633847119,0.6329937647361468,0.826347535536586,1.8173383474349976,1.0
352,1,352,-1,1,-1.2833885640580132,0.382037894814105,1.4580973633847119,0.6511048634062555,0.826347535536586,2.869381904602051,1.0
353,1,353,1,-1,-0.13527445133727425,-0.0020006566054523722,1.4580973633847119,0.6399547351682915,0.826347535536586,2.2123563289642334,0.0
354,1,354,-1,1,0.17390912932062444,0.382037894814105,1.4580973633847119,0.6369520401093144,0.826347535536586,1.499342441558838,1.0
355,1,355,-1,1,0.67885983735147,0.382037894814105,1.4580973633847119,0.6320481154157555,0.826347535536586,3.1053647994995117,1.0
356,1,356,1,1,-1.3825287428981279,-0.24780663422295165,1.4580973633847119,0.6520676820802481,0.826347535536586,1.0843477249145508,1.0
357,1,357,1,1,0.38450679346722466,-0.24780663422295165,1.4580973633847119,0.6349067809004665,0.826347535536586,2.2593584060668945,1.0
358,1,358,-1,-1,-1.6226172714607539,0.6278438724316042,1.4580973633847119,0.6543993474193263,0.826347535536586,1.851339340209961,1.0
359,1,359,-1,-1,-0.19495348511483412,0.6278438724316042,1.4580973633847119,0.6405343194381518,0.826347535536586,3.8723092079162598,1.0
360,1,360,-1,-1,1.2576738887595182,0.6278438724316042,1.4580973633847119,0.6264268528359922,0.826347535536586,4.278279781341553,1.0
361,1,361,-1,1,1.3821842641486781,0.382037894814105,1.4580973633847119,0.6252176466802937,0.826347535536586,2.117351770401001,1.0
362,1,362,-1,-1,0.6820583884210766,0.6278438724316042,1.4580973633847119,0.6320170520796231,0.826347535536586,1.3623442649841309,1.0
363,1,363,1,-1,1.0519479229930069,-0.0020006566054523722,1.4580973633847119,0.6284247996208633,0.826347535536586,1.540341854095459,1.0
364,1,364,1,-1,1.8975686383431987,-0.0020006566054523722,1.4580973633847119,0.620212393456384,0.826347535536586,1.473342776298523,1.0
365,1,365,1,-1,0.05594549486783608,-0.0020006566054523722,1.4580973633847119,0.6380976663471523,0.826347535536586,5.603183746337891,1.0
366,1,366,-1,1,-1.0531667869595511,0.382037894814105,1.4580973633847119,0.6488690208977642,0.826347535536586,1.3923437595367432,1.0
367,1,367,-1,1,-0.7301527123313577,0.382037894814105,1.4580973633847119,0.6457320083701186,0.826347535536586,1.9583444595336914,0.0
368,1,368,-1,1,1.4505136974320703,0.382037894814105,1.4580973633847119,0.6245540524128809,0.826347535536586,1.8983416557312012,1.0
369,1,369,-1,-1,0.5061791130696028,0.6278438724316042,1.4580973633847119,0.6337251370625016,0.826347535536586,1.684340000152588,1.0
370,1,370,-1,-1,0.8294993646217969,0.6278438724316042,1.4580973633847119,0.6305851510395141,0.826347535536586,2.7763826847076416,1.0
371,1,371,-1,-1,-1.0046262484444546,0.6278438724316042,1.4580973633847119,0.648397610239898,0.826347535536586,1.1073474884033203,1.0
372,1,372,1,-1,0.8967542792371883,-0.0020006566054523722,1.4580973633847119,0.6299319921642017,0.826347535536586,1.4603428840637207,1.0
373,1,373,1,1,0.5717160928643337,-0.24780663422295165,1.4580973633847119,0.633088662237444,0.826347535536586,1.4723427295684814,0.0
374,1,374,1,-1,-0.5434494567668572,-0.0020006566054523722,1.4580973633847119,0.6439188042478765,0.826347535536586,2.1833548545837402,1.0
375,1,375,-1,-1,0.4221558772413485,0.6278438724316042,1.4580973633847119,0.6345411446736557,0.826347535536586,1.6233408451080322,1.0
376,1,376,-1,-1,0.006036487960160472,0.6278438724316042,1.4580973633847119,0.6385823671456916,0.826347535536586,1.5513417720794678,1.0
377,1,377,-1,1,-1.9181027631705143,0.382037894814105,1.4580973633847119,0.6572690108861519,0.826347535536586,1.215346097946167,1.0
378,1,378,-1,-1,-0.8103629146502594,0.6278438724316042,1.4580973633847119,0.6465109849822338,0.826347535536586,1.2363457679748535,1.0
379,1,379,1,-1,-0.3010768127709283,-0.0020006566054523722,1.4580973633847119,0.6415649562880036,0.826347535536586,1.0433478355407715,1.0
380,1,380,1,1,0.340756778204357,-0.24780663422295165,1.4580973633847119,0.6353316674820257,0.826347535536586,2.9023795127868652,0.0
381,1,381,-1,-1,-1.2866245229933473,0.6278438724316042,1.4580973633847119,0.6511362900359798,0.826347535536586,1.0223476886749268,1.0
382,1,382,-1,-1,-0.5467009927505038,0.6278438724316042,1.4580973633847119,0.6439503821570637,0.826347535536586,1.1693466901779175,1.0
383,1,383,1,-1,1.3353838134930975,-0.0020006566054523722,1.4580973633847119,0.6256721581444613,0.826347535536586,2.145353078842163,0.0
384,1,384,-1,-1,-0.639579514068536,0.6278438724316042,1.4580973633847119,0.6448523895549123,0.826347535536586,1.0343477725982666,1.0
385,1,385,1,1,-1.3209405758139956,-0.24780663422295165,1.4580973633847119,0.6514695568997276,0.826347535536586,1.473342776298523,1.0
386,1,386,-1,1,1.598560101562389,0.382037894814105,1.4580973633847119,0.62311627164446,0.826347535536586,1.0383477210998535,1.0
387,1,387,-1,-1,-0.39393000587336746,0.6278438724316042,1.4580973633847119,0.6424667177060766,0.826347535536586,2.0053465366363525,1.0
388,1,388,1,1,-1.2387577487679473,-0.24780663422295165,1.4580973633847119,0.6506714227679641,0.826347535536586,3.463338851928711,0.0
389,1,389,-1,-1,0.214263941717035,0.6278438724316042,1.4580973633847119,0.6365601266851577,0.826347535536586,2.4283664226531982,1.0
390,1,390,-1,1,-0.7816824988583745,0.382037894814105,1.4580973633847119,0.6462324496777249,0.826347535536586,1.146346926689148,1.0
391,1,391,-1,1,-1.5063013124590816,0.382037894814105,1.4580973633847119,0.6532697228945331,0.826347535536586,2.4393668174743652,0.0
392,1,392,1,-1,-0.7980285570574474,-0.0020006566054523722,1.4580973633847119,0.6463911975261186,0.826347535536586,1.6633403301239014,1.0
393,1,393,-1,1,1.194665500554968,0.382037894814105,1.4580973633847119,0.6270387707636302,0.826347535536586,4.148289203643799,0.0
394,1,394,1,-1,1.9637120173249174,-0.0020006566054523722,1.4580973633847119,0.6195700294704639,0.826347535536586,3.1943583488464355,1.0
395,1,395,-1,1,-0.3664230373405993,0.382037894814105,1.4580973633847119,0.6421995785574678,0.826347535536586,1.282345175743103,1.0
396,1,396,1,1,-2.3207056543827362,-0.24780663422295165,1.4580973633847119,0.6611789653203444,0.826347535536586,3.7093210220336914,1.0
397,1,397,-1,-1,-0.21324074410281202,0.6278438724316042,1.4580973633847119,0.6407119196266501,0.826347535536586,3.2603535652160645,1.0
398,1,398,1,1,0.6177434999268868,-0.24780663422295165,1.4580973633847119,0.6326416583329346,0.826347535536586,4.337275505065918,0.0
399,1,399,-1,1,0.32238768016064023,0.382037894814105,1.4580973633847119,0.6355100624660556,0.826347535536586,4.427268981933594,1.0
400,1,400,-1,-1,0.44891636431862847,0.6278438724316042,1.4580973633847119,0.6342812551214623,0.826347535536586,1.6773401498794556,1.0
401,1,401,-1,-1,0.10774037255364348,0.6278438724316042,1.4580973633847119,0.6375946505564154,0.826347535536586,1.588341236114502,1.0
402,1,402,-1,-1,-1.1663470229616892,0.6278438724316042,1.4580973633847119,0.6499681922531587,0.826347535536586,3.1763596534729004,1.0
403,1,403,-1,-1,-0.8505159393652962,0.6278438724316042,1.4580973633847119,0.6469009387070023,0.826347535536586,2.0343480110168457,1.0
404,1,404,-1,1,1.4681703828785766,0.382037894814105,1.4580973633847119,0.6243825761590794,0.826347535536586,2.10335111618042,0.0
405,1,405,-1,-1,-0.6634212486293849,0.6278438724316042,1.4580973633847119,0.6450839330877577,0.826347535536586,1.875340461730957,1.0
406,1,406,1,-1,-0.9189476058939334,-0.0020006566054523722,1.4580973633847119,0.6475655258319909,0.826347535536586,5.1572160720825195,1.0
407,1,407,1,1,1.2194873916752311,-0.24780663422295165,1.4580973633847119,0.6267977082542219,0.826347535536586,3.203357696533203,0.0
408,1,408,1,-1,0.7537727043235254,-0.0020006566054523722,1.4580973633847119,0.6313205848818502,0.826347535536586,1.7383394241333008,1.0
409,1,409,-1,1,0.23268578032232318,0.382037894814105,1.4580973633847119,0.6363812195011486,0.826347535536586,1.6663403511047363,1.0
410,1,410,-1,1,2.7827981666407178,0.382037894814105,1.4580973633847119,0.6116153187830665,0.826347535536586,1.4193434715270996,1.0
411,1,411,-1,1,-0.5281837687662523,0.382037894814105,1.4580973633847119,0.6437705486198326,0.826347535536586,1.9303431510925293,1.0
412,1,412,-1,1,1.7329502444554228,0.382037894814105,1.4580973633847119,0.6218111162504333,0.826347535536586,1.6543405055999756,0.0
413,1,413,1,-1,0.355653811059887,-0.0020006566054523722,1.4580973633847119,0.6351869921184325,0.826347535536586,5.299205780029297,0.0
414,1,414,-1,1,0.7110750746748954,0.382037894814105,1.4580973633847119,0.6317352510206637,0.826347535536586,1.469342827796936,0.0
415,1,415,1,-1,-1.926265567582645,-0.0020006566054523722,1.4580973633847119,0.6573482855113553,0.826347535536586,2.8993797302246094,1.0
416,1,416,1,-1,-0.6710988776911034,-0.0020006566054523722,1.4580973633847119,0.6451584958404085,0.826347535536586,4.910233974456787,0.0
417,1,417,-1,-1,-0.29104043464658347,0.6278438724316042,1.4580973633847119,0.6414674860958935,0.826347535536586,4.746245861053467,1.0
418,1,418,1,-1,-0.41570326491803006,-0.0020006566054523722,1.4580973633847119,0.6426781728461333,0.826347535536586,4.434268474578857,0.0
419,1,419,-1,1,-1.0959807115279638,0.382037894814105,1.4580973633847119,0.6492848164567763,0.826347535536586,1.9733450412750244,1.0
420,1,420,1,-1,-1.3858627657923335,-0.0020006566054523722,1.4580973633847119,0.6521000610767318,0.826347535536586,2.844383716583252,0.0
421,1,421,-1,-1,-1.988304911837892,0.6278438724316042,1.4580973633847119,0.6579507923846538,0.826347535536586,9.819351196289062,1.0
422,1,422,-1,-1,-0.3049242303869918,0.6278438724316042,1.4580973633847119,0.6416023212148247,0.826347535536586,5.100220203399658,1.0
423,1,423,1,-1,0.23353985617703854,-0.0020006566054523722,1.4580973633847119,0.6363729249812924,0.826347535536586,1.491342544555664,1.0
424,1,424,1,-1,1.458393586572964,-0.0020006566054523722,1.4580973633847119,0.624477525373061,0.826347535536586,2.393364667892456,0.0
425,1,425,1,-1,1.3407101882570858,-0.0020006566054523722,1.4580973633847119,0.6256204300444372,0.826347535536586,1.9163424968719482,0.0
426,1,426,-1,-1,-0.3610385484617043,0.6278438724316042,1.4580973633847119,0.6421472860711805,0.826347535536586,1.1973463296890259,1.0
427,1,427,-1,-1,0.3618330215181633,0.6278438724316042,1.4580973633847119,0.6351269815426058,0.826347535536586,1.5683414936065674,0.0
428,1,428,-1,-1,0.27716843747080316,0.6278438724316042,1.4580973633847119,0.635949217728785,0.826347535536586,2.576373338699341,1.0
429,1,429,-1,1,1.4271049564234437,0.382037894814105,1.4580973633847119,0.6247813908466163,0.826347535536586,1.9703450202941895,1.0
430,1,430,1,1,-0.46544171482113816,-0.24780663422295165,1.4580973633847119,0.6431612172479332,0.826347535536586,2.058349132537842,0.0
431,1,431,-1,1,-1.7794349461503194,0.382037894814105,1.4580973633847119,0.6559223120474889,0.826347535536586,1.0683478116989136,1.0
432,1,432,-1,-1,0.1695586387638564,0.6278438724316042,1.4580973633847119,0.6369942907245351,0.826347535536586,4.104292392730713,1.0
433,1,433,-1,1,1.1848581570176946,0.382037894814105,1.4580973633847119,0.6271340166428533,0.826347535536586,3.0653676986694336,1.0
434,1,434,1,1,-1.167958006526901,-0.24780663422295165,1.4580973633847119,0.6499838376259857,0.826347535536586,0.9763476848602295,1.0
435,1,435,1,1,-0.685148475487269,-0.24780663422295165,1.4580973633847119,0.6452949411774908,0.826347535536586,4.024298191070557,0.0
436,1,436,1,-1,-1.1868409870145544,-0.0020006566054523722,1.4580973633847119,0.6501672232769584,0.826347535536586,1.26334547996521,1.0
437,1,437,-1,1,-0.155451908513706,0.382037894814105,1.4580973633847119,0.6401506923754545,0.826347535536586,1.4363431930541992,1.0
438,1,438,1,-1,0.16288190698945493,-0.0020006566054523722,1.4580973633847119,0.6370591330731049,0.826347535536586,2.2473578453063965,0.0
439,1,439,1,-1,0.6146159831364131,-0.0020006566054523722,1.4580973633847119,0.6326720318061755,0.826347535536586,2.4393668174743652,0.0
440,1,440,1,1,0.5055426918534944,-0.24780663422295165,1.4580973633847119,0.6337313177880012,0.826347535536586,6.420124530792236,1.0
441,1,441,1,1,1.485838101413516,-0.24780663422295165,1.4580973633847119,0.6242109927553444,0.826347535536586,3.8513107299804688,1.0
442,1,442,1,1,1.5820915658100279,-0.24780663422295165,1.4580973633847119,0.6232762089568715,0.826347535536586,2.7283804416656494,0.0
443,1,443,-1,1,0.34473442437094726,0.382037894814105,1.4580973633847119,0.6352930378159052,0.826347535536586,2.1703543663024902,1.0
444,1,444,1,-1,0.3063464023331665,-0.0020006566054523722,1.4580973633847119,0.6356658503819912,0.826347535536586,1.9653446674346924,0.0
445,1,445,-1,-1,-0.11680409722151516,0.6278438724316042,1.4580973633847119,0.6397753568166891,0.826347535536586,5.704176425933838,1.0
446,1,446,1,1,0.5546331485050235,-0.24780663422295165,1.4580973633847119,0.633254566495721,0.826347535536586,1.8073384761810303,1.0
447,1,447,1,-1,0.2969874940422503,-0.0020006566054523722,1.4580973633847119,0.6357567411971592,0.826347535536586,1.628340721130371,1.0
448,1,448,1,-1,-0.3358614515318047,-0.0020006566054523722,1.4580973633847119,0.6419027739130966,0.826347535536586,5.347202301025391,0.0
449,1,449,1,1,0.4748273633006975,-0.24780663422295165,1.4580973633847119,0.6340296155342272,0.826347535536586,4.43026876449585,0.0
450,1,450,1,1,-0.09892680594476204,-0.24780663422295165,1.4580973633847119,0.6396017381074731,0.826347535536586,1.377344012260437,1.0
451,1,451,-1,-1,0.05779592623126199,0.6278438724316042,1.4580973633847119,0.6380796955315607,0.826347535536586,2.161353826522827,1.0
452,1,452,-1,1,2.5809577477492196,0.382037894814105,1.4580973633847119,0.6135755303415774,0.826347535536586,3.697321891784668,0.0
453,1,453,-1,1,-0.009385146181008247,0.382037894814105,1.4580973633847119,0.6387321372742946,0.826347535536586,8.242992401123047,1.0
454,1,454,1,-1,-1.2581510670396945,-0.0020006566054523722,1.4580973633847119,0.6508597646612426,0.826347535536586,2.7103796005249023,0.0
455,1,455,1,1,0.36047371376689047,-0.24780663422295165,1.4580973633847119,0.6351401827179713,0.826347535536586,1.28634512424469,0.0
456,1,456,1,1,1.1108343868599704,-0.24780663422295165,1.4580973633847119,0.6278529125442025,0.826347535536586,1.7353394031524658,0.0
457,1,457,-1,-1,-0.35496925579591604,0.6278438724316042,1.4580973633847119,0.6420883429828695,0.826347535536586,3.868309497833252,1.0
458,1,458,-1,-1,-1.0307163105868085,0.6278438724316042,1.4580973633847119,0.6486509888330191,0.826347535536586,2.2853596210479736,1.0
459,1,459,1,-1,-0.37963404781386084,-0.0020006566054523722,1.4580973633847119,0.6423278797945119,0.826347535536586,3.0443692207336426,1.0
460,1,460,1,-1,0.8875280196915621,-0.0020006566054523722,1.4580973633847119,0.6300215947358893,0.826347535536586,2.9553756713867188,0.0
461,1,461,1,-1,-0.981747616338364,-0.0020006566054523722,1.4580973633847119,0.6481754200594397,0.826347535536586,3.635326385498047,0.0
462,1,462,1,-1,-0.575228479005658,-0.0020006566054523722,1.4580973633847119,0.6442274322573346,0.826347535536586,1.866340160369873,0.0
463,1,463,-1,-1,0.49462222386506716,0.6278438724316042,1.4580973633847119,0.633837373986719,0.826347535536586,4.172287464141846,1.0
464,1,464,-1,1,1.0718732136967388,0.382037894814105,1.4580973633847119,0.6282312913762875,0.826347535536586,2.0083467960357666,1.0
465,1,465,1,1,0.35765027211515016,-0.24780663422295165,1.4580973633847119,0.635167603107757,0.826347535536586,2.970374584197998,1.0
466,1,466,1,-1,-1.1060406153869247,-0.0020006566054523722,1.4580973633847119,0.6493825151235256,0.826347535536586,1.3943438529968262,0.0
467,1,467,-1,1,-0.5431777824183628,0.382037894814105,1.4580973633847119,0.6439161658308489,0.826347535536586,1.1823464632034302,1.0
468,1,468,1,1,0.4467334179133059,-0.24780663422295165,1.4580973633847119,0.6343024552200294,0.826347535536586,3.9583029747009277,0.0
469,1,469,-1,1,0.7941785440772072,0.382037894814105,1.4580973633847119,0.6309281758958231,0.826347535536586,4.714248180389404,1.0
470,1,470,-1,-1,-1.5976309457244133,0.6278438724316042,1.4580973633847119,0.6541566879719168,0.826347535536586,3.78031587600708,1.0
471,1,471,1,1,0.7228072062941318,-0.24780663422295165,1.4580973633847119,0.6316213121964565,0.826347535536586,1.5193421840667725,1.0
472,1,472,-1,-1,2.3228194749718654,0.6278438724316042,1.4580973633847119,0.6160824891993283,0.826347535536586,1.285345196723938,1.0
473,1,473,-1,-1,-0.008679481908941855,0.6278438724316042,1.4580973633847119,0.6387252840817074,0.826347535536586,1.7423393726348877,1.0
474,1,474,-1,-1,0.615408055891137,0.6278438724316042,1.4580973633847119,0.6326643394411996,0.826347535536586,1.3183447122573853,1.0
475,1,475,-1,-1,0.3689375648668135,0.6278438724316042,1.4580973633847119,0.6350579844206892,0.826347535536586,2.134352684020996,1.0
476,1,476,-1,-1,-0.11494723315323141,0.6278438724316042,1.4580973633847119,0.6397573235286627,0.826347535536586,1.4103436470031738,1.0
477,1,477,-1,-1,-1.8174135904325723,0.6278438724316042,1.4580973633847119,0.6562911488637593,0.826347535536586,3.2623534202575684,1.0
478,1,478,-1,1,-0.3795344555272397,0.382037894814105,1.4580973633847119,0.6423269125851073,0.826347535536586,1.2963449954986572,1.0
479,1,479,-1,1,0.02906089867444897,0.382037894814105,1.4580973633847119,0.6383587612085958,0.826347535536586,2.2253568172454834,1.0
480,1,480,-1,-1,-0.03141532728217164,0.6278438724316042,1.4580973633847119,0.6389460875616936,0.826347535536586,1.6183409690856934,1.0
481,1,481,-1,1,1.0277080384174142,0.382037894814105,1.4580973633847119,0.6286602098631874,0.826347535536586,1.6253408193588257,0.0
482,1,482,-1,-1,-1.2082879374161017,0.6278438724316042,1.4580973633847119,0.65037550940866,0.826347535536586,1.4093436002731323,1.0
483,1,483,-1,1,1.3879667780299443,0.382037894814105,1.4580973633847119,0.6251614886986092,0.826347535536586,3.0193710327148438,0.0
484,1,484,1,-1,-1.1802202393862506,-0.0020006566054523722,1.4580973633847119,0.6501029246290551,0.826347535536586,1.5293420553207397,1.0
485,1,485,1,1,-1.4252057240141554,-0.24780663422295165,1.4580973633847119,0.652482147686916,0.826347535536586,3.547332763671875,1.0
486,1,486,-1,-1,-0.10528681563763898,0.6278438724316042,1.4580973633847119,0.6396635045494012,0.826347535536586,2.5153703689575195,1.0
487,1,487,-1,1,-0.20871815063880111,0.382037894814105,1.4580973633847119,0.6406679976013626,0.826347535536586,2.8163845539093018,1.0
488,1,488,-1,-1,-1.0446984832653634,0.6278438724316042,1.4580973633847119,0.6487867793582673,0.826347535536586,2.137352705001831,1.0
489,1,489,1,-1,0.300168402299967,-0.0020006566054523722,1.4580973633847119,0.6357258492025449,0.826347535536586,2.594374179840088,1.0
490,1,490,1,1,-0.4302179461132676,-0.24780663422295165,1.4580973633847119,0.6428191349289671,0.826347535536586,3.274352550506592,1.0
491,1,491,1,1,-0.8842578762371025,-0.24780663422295165,1.4580973633847119,0.6472286299346856,0.826347535536586,1.6853400468826294,0.0
492,1,492,1,-1,-0.3541678635389055,-0.0020006566054523722,1.4580973633847119,0.6420805601097774,0.826347535536586,3.081366539001465,1.0
493,1,493,1,1,-0.37091916827210836,-0.24780663422295165,1.4580973633847119,0.6422432435868455,0.826347535536586,2.1953554153442383,0.0
494,1,494,-1,1,-0.08907302690527978,0.382037894814105,1.4580973633847119,0.639506041261052,0.826347535536586,1.233345866203308,1.0
495,1,495,1,-1,-1.1406918607648702,-0.0020006566054523722,1.4580973633847119,0.6497190372734483,0.826347535536586,2.9013795852661133,1.0
496,1,496,1,-1,-0.5271964951103273,-0.0020006566054523722,1.4580973633847119,0.6437609605242351,0.826347535536586,1.3433444499969482,1.0
497,1,497,-1,1,0.2260398024712877,0.382037894814105,1.4580973633847119,0.6364457631771514,0.826347535536586,2.4553675651550293,1.0
498,1,498,1,1,-0.538282333746038,-0.24780663422295165,1.4580973633847119,0.6438686227513989,0.826347535536586,2.903379440307617,0.0
499,1,499,-1,-1,0.8360806871536061,0.6278438724316042,1.4580973633847119,0.6305212352759223,0.826347535536586,3.4273414611816406,0.0
500,1,500,-1,1,0.14921072031029017,0.382037894814105,1.4580973633847119,0.6371919033987624,0.826347535536586,7.645035743713379,1.0
501,1,501,-1,-1,0.08553410324412698,0.6278438724316042,1.4580973633847119,0.6378103109578899,0.826347535536586,1.0623478889465332,1.0
502,1,502,-1,-1,-0.17814527500689786,0.6278438724316042,1.4580973633847119,0.6403710833137303,0.826347535536586,5.729174613952637,1.0
503,1,503,1,1,-0.27048165712026195,-0.24780663422295165,1.4580973633847119,0.6412678256237381,0.826347535536586,1.6953399181365967,0.0
504,1,504,-1,1,2.65782917300404,0.382037894814105,1.4580973633847119,0.6128289788969695,0.826347535536586,2.161353826522827,1.0
505,1,505,1,-1,0.06476760846879427,-0.0020006566054523722,1.4580973633847119,0.6380119887155556,0.826347535536586,1.9253427982330322,1.0
506,1,506,-1,-1,-0.5009913294378854,0.6278438724316042,1.4580973633847119,0.643506464081323,0.826347535536586,1.854339599609375,1.0
507,1,507,1,-1,0.7137823709264548,-0.0020006566054523722,1.4580973633847119,0.6317089585989885,0.826347535536586,1.8353385925292969,1.0
508,1,508,1,-1,-0.3669105246325381,-0.0020006566054523722,1.4580973633847119,0.6422043128828795,0.826347535536586,4.873236656188965,0.0
509,1,509,1,-1,0.4168998592209793,-0.0020006566054523722,1.4580973633847119,0.6345921894908032,0.826347535536586,1.9373433589935303,0.0
510,1,510,-1,-1,-1.637114199131575,0.6278438724316042,1.4580973633847119,0.6545401370854362,0.826347535536586,2.156353712081909,1.0
511,1,511,1,-1,-1.1263208646876681,-0.0020006566054523722,1.4580973633847119,0.6495794706159247,0.826347535536586,1.5043423175811768,1.0
512,1,512,-1,-1,-1.6764962784844069,0.6278438724316042,1.4580973633847119,0.6549226036279135,0.826347535536586,2.5563724040985107,1.0
513,1,513,-1,-1,0.5309841186709201,0.6278438724316042,1.4580973633847119,0.633484238540017,0.826347535536586,2.585373640060425,1.0
514,1,514,1,-1,-0.024415965024627354,-0.0020006566054523722,1.4580973633847119,0.6388781119259176,0.826347535536586,5.668179035186768,0.0
515,1,515,-1,-1,-2.193121873817738,0.6278438724316042,1.4580973633847119,0.6599399112066267,0.826347535536586,1.2363457679748535,1.0
516,1,516,-1,1,0.7421619464016879,0.382037894814105,1.4580973633847119,0.6314333449623457,0.826347535536586,1.4093436002731323,1.0
517,1,517,1,1,0.7379816690714471,-0.24780663422295165,1.4580973633847119,0.6314739425194926,0.826347535536586,2.071349620819092,1.0
518,1,518,-1,-1,-1.0209511581219612,0.6278438724316042,1.4580973633847119,0.6485561527004083,0.826347535536586,2.101351022720337,1.0
519,1,519,-1,-1,0.6383137154746036,0.6278438724316042,1.4580973633847119,0.6324418867782622,0.826347535536586,2.0253474712371826,1.0
520,1,520,-1,-1,-1.3064330994469278,0.6278438724316042,1.4580973633847119,0.6513286647879507,0.826347535536586,7.955013275146484,1.0
521,1,521,1,-1,0.2506583151082074,-0.0020006566054523722,1.4580973633847119,0.6362066758165065,0.826347535536586,1.3193447589874268,1.0
522,1,522,-1,1,-0.6348399873742772,0.382037894814105,1.4580973633847119,0.6448063607413627,0.826347535536586,1.7133396863937378,1.0
523,1,523,1,1,0.26837367216194313,-0.24780663422295165,1.4580973633847119,0.6360346297622493,0.826347535536586,1.846339225769043,0.0
524,1,524,1,1,1.1685244736163578,-0.24780663422295165,1.4580973633847119,0.6272926443110487,0.826347535536586,2.5563724040985107,1.0
525,1,525,1,-1,-0.8608317276673264,-0.0020006566054523722,1.4580973633847119,0.6470011224441142,0.826347535536586,2.412365674972534,1.0
526,1,526,-1,-1,0.7998859160748356,0.6278438724316042,1.4580973633847119,0.6308727476688112,0.826347535536586,0.9773476719856262,1.0
527,1,527,1,-1,-1.0559676036960068,-0.0020006566054523722,1.4580973633847119,0.6488962215613886,0.826347535536586,2.12335205078125,1.0
528,1,528,-1,-1,0.8076421592447078,0.6278438724316042,1.4580973633847119,0.6307974214403199,0.826347535536586,1.3933438062667847,1.0
529,1,529,1,1,-0.49280826096624886,-0.24780663422295165,1.4580973633847119,0.6434269926578574,0.826347535536586,3.8383116722106934,0.0
530,1,530,1,-1,2.2396738784174137,-0.0020006566054523722,1.4580973633847119,0.6168899734500072,0.826347535536586,1.0823477506637573,1.0
531,1,531,-1,1,1.212786075866983,0.382037894814105,1.4580973633847119,0.626862789355305,0.826347535536586,2.647376537322998,0.0
532,1,532,1,-1,-0.177798187230589,-0.0020006566054523722,1.4580973633847119,0.6403677125048771,0.826347535536586,1.8033385276794434,1.0
533,1,533,-1,-1,-0.7317427986395617,0.6278438724316042,1.4580973633847119,0.6457474507952656,0.826347535536586,3.015371322631836,1.0
534,1,534,-1,-1,1.5588485537875052,0.6278438724316042,1.4580973633847119,0.6235019378820857,0.826347535536586,1.014347791671753,1.0
535,1,535,-1,-1,0.12841449647340009,0.6278438724316042,1.4580973633847119,0.6373938698758552,0.826347535536586,4.596256732940674,0.0
536,1,536,1,1,-0.1065784335216043,-0.24780663422295165,1.4580973633847119,0.6396760483417657,0.826347535536586,2.613374948501587,0.0
537,1,537,1,-1,0.3143511584176273,-0.0020006566054523722,1.4580973633847119,0.6355881106731361,0.826347535536586,2.2993602752685547,0.0
538,1,538,1,1,0.43361417776094013,-0.24780663422295165,1.4580973633847119,0.6344298652121746,0.826347535536586,5.979156494140625,0.0
539,1,539,-1,1,1.3096928053099393,0.382037894814105,1.4580973633847119,0.6259216612492755,0.826347535536586,3.101365089416504,1.0
540,1,540,1,1,-0.1878178615430115,-0.24780663422295165,1.4580973633847119,0.6404650204747455,0.826347535536586,1.2833452224731445,1.0
541,1,541,-1,1,-1.3790182353993958,0.382037894814105,1.4580973633847119,0.6520335891200123,0.826347535536586,1.9343433380126953,1.0
542,1,542,1,1,-1.0225966423145096,-0.24780663422295165,1.4580973633847119,0.6485721331326294,0.826347535536586,2.839384078979492,0.0
543,1,543,-1,1,1.6335195494586343,0.382037894814105,1.4580973633847119,0.6227767563272518,0.826347535536586,2.9613752365112305,1.0
544,1,544,1,-1,0.7882436152591646,-0.0020006566054523722,1.4580973633847119,0.6309858140841104,0.826347535536586,3.5323338508605957,1.0
545,1,545,-1,-1,0.1821345062969289,0.6278438724316042,1.4580973633847119,0.6368721577987712,0.826347535536586,1.193346381187439,1.0
546,1,546,1,-1,0.2082917076010326,-0.0020006566054523722,1.4580973633847119,0.6366181271709306,0.826347535536586,1.10134756565094,1.0
547,1,547,1,1,1.976749670711983,-0.24780663422295165,1.4580973633847119,0.6194434118236836,0.826347535536586,1.2553455829620361,0.0
548,1,548,-1,1,-0.1888746600701165,0.382037894814105,1.4580973633847119,0.6404752837743325,0.826347535536586,1.775338888168335,1.0
549,1,549,-1,1,0.6034343943083103,0.382037894814105,1.4580973633847119,0.632780623929516,0.826347535536586,2.8283848762512207,0.0
550,1,550,1,-1,0.9578350133111331,-0.0020006566054523722,1.4580973633847119,0.6293387950157235,0.826347535536586,2.9823737144470215,0.0
551,1,551,-1,1,0.8744683783497077,0.382037894814105,1.4580973633847119,0.630148425922868,0.826347535536586,1.701339840888977,1.0
552,1,552,1,-1,0.2181016480193157,-0.0020006566054523722,1.4580973633847119,0.6365228560716046,0.826347535536586,7.660034656524658,0.0
553,1,553,1,1,-1.9168543139789638,-0.24780663422295165,1.4580973633847119,0.6572568863347418,0.826347535536586,2.610374927520752,0.0
554,1,554,-1,-1,-1.21929709535896,0.6278438724316042,1.4580973633847119,0.650482426936713,0.826347535536586,1.120347261428833,1.0
555,1,555,-1,1,0.37562272280656994,0.382037894814105,1.4580973633847119,0.6349930602398143,0.826347535536586,2.1743545532226562,0.0
556,1,556,1,-1,0.502500710690027,-0.0020006566054523722,1.4580973633847119,0.6337608605657568,0.826347535536586,3.2433547973632812,1.0
557,1,557,1,1,1.3623619085505643,-0.24780663422295165,1.4580973633847119,0.6254101552510435,0.826347535536586,5.722175121307373,0.0
558,1,558,1,1,0.23890623038606218,-0.24780663422295165,1.4580973633847119,0.6363208084190618,0.826347535536586,4.579257965087891,0.0
559,1,559,-1,1,0.06639595805940948,0.382037894814105,1.4580973633847119,0.6379961746892752,0.826347535536586,1.6143410205841064,1.0
560,1,560,1,1,0.4005282245412023,-0.24780663422295165,1.4580973633847119,0.6347511857300463,0.826347535536586,4.078294277191162,0.0
561,1,561,-1,1,-0.30789005125486246,0.382037894814105,1.4580973633847119,0.6416311243474064,0.826347535536586,1.9933459758758545,1.0
562,1,562,1,-1,0.6762386375674687,-0.0020006566054523722,1.4580973633847119,0.632073571695236,0.826347535536586,1.5203421115875244,1.0
563,1,563,-1,1,1.3008064878013454,0.382037894814105,1.4580973633847119,0.6260079624093138,0.826347535536586,1.8293383121490479,0.0
564,1,564,1,-1,-1.496346007794612,-0.0020006566054523722,1.4580973633847119,0.6531730400627249,0.826347535536586,1.9863457679748535,0.0
565,1,565,-1,-1,0.8605638117474214,0.6278438724316042,1.4580973633847119,0.6302834627619688,0.826347535536586,1.3753440380096436,1.0
566,1,566,-1,-1,-1.6480833981769343,0.6278438724316042,1.4580973633847119,0.6546466665450678,0.826347535536586,1.094347596168518,1.0
567,1,567,1,-1,-0.8093757724856068,-0.0020006566054523722,1.4580973633847119,0.6465013981636388,0.826347535536586,3.1103644371032715,0.0
568,1,568,-1,-1,1.3422233769548773,0.6278438724316042,1.4580973633847119,0.625605734425037,0.826347535536586,1.6413406133651733,1.0
569,1,569,1,-1,-0.019944264940589776,-0.0020006566054523722,1.4580973633847119,0.6388346841613546,0.826347535536586,1.6243407726287842,0.0
570,1,570,1,1,0.21905059935221577,-0.24780663422295165,1.4580973633847119,0.6365136401505248,0.826347535536586,1.6933399438858032,1.0
571,1,571,1,-1,0.7184543066943025,-0.0020006566054523722,1.4580973633847119,0.6316635862075564,0.826347535536586,1.879340648651123,1.0
572,1,572,1,1,0.41272945032144615,-0.24780663422295165,1.4580973633847119,0.6346326912088113,0.826347535536586,1.7503392696380615,0.0
573,1,573,1,1,0.9989821839371404,-0.24780663422295165,1.4580973633847119,0.6289391864541476,0.826347535536586,3.525334358215332,0.0
574,1,574,1,-1,-0.44789535423488813,-0.0020006566054523722,1.4580973633847119,0.6429908124349633,0.826347535536586,1.444343090057373,1.0
575,1,575,1,-1,2.2483659353837466,-0.0020006566054523722,1.4580973633847119,0.6168055588881161,0.826347535536586,4.32827615737915,1.0
576,1,576,1,-1,0.5126393036792578,-0.0020006566054523722,1.4580973633847119,0.6336623976945752,0.826347535536586,1.145346999168396,1.0
577,1,577,1,1,0.33594692304196205,-0.24780663422295165,1.4580973633847119,0.6353783793038495,0.826347535536586,3.525334358215332,1.0
578,1,578,1,-1,0.9329162836493843,-0.0020006566054523722,1.4580973633847119,0.6295807979910177,0.826347535536586,3.4253416061401367,1.0
579,1,579,1,1,1.0179077843363613,-0.24780663422295165,1.4580973633847119,0.62875538689181,0.826347535536586,4.831239700317383,0.0
580,1,580,1,1,-1.2017967017624152,-0.24780663422295165,1.4580973633847119,0.650312468540893,0.826347535536586,2.8163845539093018,0.0
581,1,581,1,-1,-0.602727064335624,-0.0020006566054523722,1.4580973633847119,0.6444944899908774,0.826347535536586,1.2273459434509277,1.0
582,1,582,1,-1,1.6504879299232205,-0.0020006566054523722,1.4580973633847119,0.6226119646779946,0.826347535536586,1.8973414897918701,1.0
583,1,583,1,1,0.6660441774977954,-0.24780663422295165,1.4580973633847119,0.6321725771301786,0.826347535536586,1.848339319229126,0.0
584,1,584,1,1,0.7176689733491853,-0.24780663422295165,1.4580973633847119,0.631671213121476,0.826347535536586,2.357362985610962,0.0
585,1,585,-1,1,0.24990307993666083,0.382037894814105,1.4580973633847119,0.6362140104262977,0.826347535536586,3.5403332710266113,1.0
586,1,586,1,1,-0.6773228173835142,-0.24780663422295165,1.4580973633847119,0.6452189408126868,0.826347535536586,4.55325984954834,0.0
587,1,587,-1,-1,0.9847776167022022,0.6278438724316042,1.4580973633847119,0.6290771368063639,0.826347535536586,2.346362590789795,1.0
588,1,588,-1,-1,-0.37417646460192494,0.6278438724316042,1.4580973633847119,0.6422748774387285,0.826347535536586,3.0923657417297363,1.0
589,1,589,-1,-1,1.4775960265095396,0.6278438724316042,1.4580973633847119,0.6242910372309832,0.826347535536586,1.1853464841842651,1.0
590,1,590,-1,-1,-0.9366007413897165,0.6278438724316042,1.4580973633847119,0.6477369676097717,0.826347535536586,2.31636118888855,1.0
591,1,591,-1,-1,-0.28792273558953746,0.6278438724316042,1.4580973633847119,0.6414372079694354,0.826347535536586,4.778243541717529,1.0
592,1,592,-1,-1,-1.0460043417751235,0.6278438724316042,1.4580973633847119,0.6487994614511735,0.826347535536586,2.358363151550293,1.0
593,1,593,1,-1,-0.731893613896273,-0.0020006566054523722,1.4580973633847119,0.6457489154662717,0.826347535536586,5.351202011108398,1.0
594,1,594,1,1,-1.0428167908515988,-0.24780663422295165,1.4580973633847119,0.6487685049450488,0.826347535536586,2.352362871170044,0.0
595,1,595,-1,-1,0.4850895665096113,0.6278438724316042,1.4580973633847119,0.6339299521989231,0.826347535536586,1.7193396091461182,1.0
596,1,596,1,-1,-0.9459958553882591,-0.0020006566054523722,1.4580973633847119,0.647828210043545,0.826347535536586,6.196140766143799,0.0
597,1,597,1,-1,-0.5270715513370238,-0.0020006566054523722,1.4580973633847119,0.6437597471090534,0.826347535536586,3.287351608276367,0.0
598,1,598,-1,-1,-1.2722581654078955,0.6278438724316042,1.4580973633847119,0.6509967684260498,0.826347535536586,3.075366973876953,1.0
599,1,599,-1,-1,0.7313701430372399,0.6278438724316042,1.4580973633847119,0.6315381516101338,0.826347535536586,1.883340835571289,1.0
600,1,600,1,-1,0.48364084819944897,-0.0020006566054523722,1.4580973633847119,0.6339440217019107,0.826347535536586,4.360273838043213,1.0
601,1,601,1,-1,1.3355506426425516,-0.0020006566054523722,1.4580973633847119,0.6256705379514947,0.826347535536586,2.4733684062957764,1.0
602,1,602,1,-1,1.1342431961913941,-0.0020006566054523722,1.4580973633847119,0.6276255734469373,0.826347535536586,1.9313430786132812,1.0
603,1,603,-1,1,-2.2261107636358135,0.382037894814105,1.4580973633847119,0.6602602890748404,0.826347535536586,1.1093474626541138,1.0
604,1,604,1,-1,-2.459080098655587,-0.0020006566054523722,1.4580973633847119,0.6625228150138587,0.826347535536586,4.227283477783203,0.0
605,1,605,1,-1,-0.4640493870636056,-0.0020006566054523722,1.4580973633847119,0.6431476953925063,0.826347535536586,1.6813400983810425,1.0
606,1,606,-1,1,1.6309115676491723,0.382037894814105,1.4580973633847119,0.6228020842378624,0.826347535536586,3.0863661766052246,1.0
607,1,607,1,-1,-1.5934625598705758,-0.0020006566054523722,1.4580973633847119,0.6541162059011012,0.826347535536586,3.4543395042419434,1.0
608,1,608,-1,1,2.221268452085492,0.382037894814105,1.4580973633847119,0.6170687212431067,0.826347535536586,2.2043559551239014,1.0
609,1,609,1,-1,0.13089006181527701,-0.0020006566054523722,1.4580973633847119,0.6373698279529161,0.826347535536586,2.3053605556488037,0.0
610,1,610,1,1,-0.1757421086785279,-0.24780663422295165,1.4580973633847119,0.6403477445075597,0.826347535536586,2.37636399269104,1.0
611,1,611,1,-1,-0.22546534161724835,-0.0020006566054523722,1.4580973633847119,0.6408306411269202,0.826347535536586,2.685378313064575,1.0
612,1,612,1,1,1.1263830431378061,-0.24780663422295165,1.4580973633847119,0.6277019088159973,0.826347535536586,1.2253459692001343,1.0
613,1,613,1,1,1.4627947873455633,-0.24780663422295165,1.4580973633847119,0.6244347822759492,0.826347535536586,2.0223474502563477,0.0
614,1,614,1,1,-0.11817310812446431,-0.24780663422295165,1.4580973633847119,0.6397886522260546,0.826347535536586,3.1123642921447754,1.0
615,1,615,1,-1,-0.4849351487522554,-0.0020006566054523722,1.4580973633847119,0.6433505314334501,0.826347535536586,4.024298191070557,1.0
616,1,616,1,1,-1.3101636587043741,-0.24780663422295165,1.4580973633847119,0.6513648948226302,0.826347535536586,1.770339012145996,0.0
617,1,617,-1,1,0.977933545092548,0.382037894814105,1.4580973633847119,0.6291436043075225,0.826347535536586,1.0033477544784546,1.0
618,1,618,1,-1,-1.130477456848146,-0.0020006566054523722,1.4580973633847119,0.6496198381500475,0.826347535536586,11.229921340942383,0.0
619,1,619,1,-1,-0.8480806613573967,-0.0020006566054523722,1.4580973633847119,0.6468772880421578,0.826347535536586,4.782243251800537,0.0
620,1,620,-1,1,-1.497685290143052,0.382037894814105,1.4580973633847119,0.6531860467575878,0.826347535536586,1.9103422164916992,1.0
621,1,621,-1,1,-0.3574989685789851,0.382037894814105,1.4580973633847119,0.6421129107689666,0.826347535536586,4.972229480743408,0.0
622,1,622,1,-1,1.2145579306064118,-0.0020006566054523722,1.4580973633847119,0.6268455816515195,0.826347535536586,6.060150623321533,1.0
623,1,623,1,1,-0.5575428326450234,-0.24780663422295165,1.4580973633847119,0.6440556747441157,0.826347535536586,1.241345763206482,1.0
624,1,624,-1,1,-0.558807469853162,0.382037894814105,1.4580973633847119,0.6440679565085232,0.826347535536586,1.7673389911651611,0.0
625,1,625,1,1,-1.0727481213688428,-0.24780663422295165,1.4580973633847119,0.6490591887454676,0.826347535536586,1.446343183517456,1.0
626,1,626,1,-1,3.457935650826102,-0.0020006566054523722,1.4580973633847119,0.6050585928936126,0.826347535536586,2.673377752304077,0.0
627,1,627,1,-1,-0.7667204933361959,-0.0020006566054523722,1.4580973633847119,0.6460871433197409,0.826347535536586,2.8713817596435547,1.0
628,1,628,1,-1,-1.898590978215257,-0.0020006566054523722,1.4580973633847119,0.6570795184811791,0.826347535536586,2.4973695278167725,1.0
629,1,629,1,-1,0.5101437315131002,-0.0020006566054523722,1.4580973633847119,0.6336866339175878,0.826347535536586,2.0433483123779297,0.0
630,1,630,-1,-1,0.13675624965621924,0.6278438724316042,1.4580973633847119,0.637312857355682,0.826347535536586,0.9433475732803345,1.0
631,1,631,1,1,0.22822598074146283,-0.24780663422295165,1.4580973633847119,0.636424531691715,0.826347535536586,1.04234778881073,1.0
632,1,632,1,-1,2.3845190800017155,-0.0020006566054523722,1.4580973633847119,0.6154832817680354,0.826347535536586,3.05836820602417,1.0
633,1,633,1,-1,-0.43665080088795,-0.0020006566054523722,1.4580973633847119,0.6428816088197409,0.826347535536586,0.9363476037979126,1.0
634,1,634,-1,1,0.2500079504468102,0.382037894814105,1.4580973633847119,0.6362129919564229,0.826347535536586,2.156353712081909,1.0
635,1,635,1,1,0.04269686282331306,-0.24780663422295165,1.4580973633847119,0.6382263329532303,0.826347535536586,1.2303458452224731,1.0
636,1,636,-1,-1,-0.8303014303291468,0.6278438724316042,1.4580973633847119,0.6467046216636673,0.826347535536586,3.5523324012756348,1.0
637,1,637,1,-1,-0.40504248787152175,-0.0020006566054523722,1.4580973633847119,0.6425746386853143,0.826347535536586,1.2803452014923096,1.0
638,1,638,-1,-1,0.34026694268036123,0.6278438724316042,1.4580973633847119,0.6353364246127391,0.826347535536586,1.561341643333435,1.0
639,1,639,1,-1,1.5468592548922375,-0.0020006566054523722,1.4580973633847119,0.6236183742351314,0.826347535536586,5.474193096160889,0.0
640,1,640,-1,1,2.2728391391988207,0.382037894814105,1.4580973633847119,0.6165678827216893,0.826347535536586,2.1783547401428223,1.0
641,1,641,-1,1,-0.28272647261555306,0.382037894814105,1.4580973633847119,0.6413867434747687,0.826347535536586,2.179354667663574,1.0
642,1,642,1,-1,-1.5334687331262964,-0.0020006566054523722,1.4580973633847119,0.6535335644595639,0.826347535536586,3.0083718299865723,1.0
643,1,643,-1,1,-0.910864421965357,0.382037894814105,1.4580973633847119,0.6474870244562339,0.826347535536586,1.0543477535247803,1.0
644,1,644,-1,1,-1.1747438418318665,0.382037894814105,1.4580973633847119,0.650049739554212,0.826347535536586,1.145346999168396,1.0
645,1,645,1,-1,0.7044198066405201,-0.0020006566054523722,1.4580973633847119,0.6317998849200464,0.826347535536586,3.1143641471862793,1.0
646,1,646,1,1,0.0051591641667492055,-0.24780663422295165,1.4580973633847119,0.6385908874423193,0.826347535536586,1.1393470764160156,1.0
647,1,647,-1,1,0.8928142553801883,0.382037894814105,1.4580973633847119,0.6299702564541181,0.826347535536586,3.011371612548828,0.0
648,1,648,-1,1,-0.7880165182980657,0.382037894814105,1.4580973633847119,0.6462939637103735,0.826347535536586,3.0073719024658203,1.0
649,1,649,-1,1,-1.4314860185097098,0.382037894814105,1.4580973633847119,0.6525431399595671,0.826347535536586,1.8063385486602783,1.0
650,1,650,1,1,-0.33538662766971905,-0.24780663422295165,1.4580973633847119,0.6418981625709886,0.826347535536586,3.0303702354431152,0.0
651,1,651,-1,1,-0.11540416205277614,0.382037894814105,1.4580973633847119,0.6397617610804436,0.826347535536586,3.9583029747009277,1.0
652,1,652,-1,1,1.0563285153357056,0.382037894814105,1.4580973633847119,0.6283822566664321,0.826347535536586,1.4383432865142822,1.0
653,1,653,1,1,-0.8373023531490214,-0.24780663422295165,1.4580973633847119,0.6467726124551407,0.826347535536586,4.03629732131958,1.0
654,1,654,-1,-1,0.38418447482679124,0.6278438724316042,1.4580973633847119,0.6349099111591529,0.826347535536586,1.3673441410064697,1.0
655,1,655,1,1,-0.582003423736903,-0.24780663422295165,1.4580973633847119,0.6442932284196861,0.826347535536586,1.5563416481018066,0.0
656,1,656,1,1,0.7760205957136516,-0.24780663422295165,1.4580973633847119,0.6311045202596356,0.826347535536586,0.978347659111023,1.0
657,1,657,-1,-1,0.5830066227946009,0.6278438724316042,1.4580973633847119,0.6329790121119013,0.826347535536586,4.724247455596924,1.0
658,1,658,1,-1,-1.0429456059117217,-0.0020006566054523722,1.4580973633847119,0.6487697559569677,0.826347535536586,2.8773813247680664,0.0
659,1,659,1,-1,-1.2158965654265605,-0.0020006566054523722,1.4580973633847119,0.6504494020444977,0.826347535536586,5.423196792602539,0.0
660,1,660,1,1,0.933698177337289,-0.24780663422295165,1.4580973633847119,0.6295732044819824,0.826347535536586,4.7122483253479,1.0
661,1,661,-1,1,-0.17634531665954323,0.382037894814105,1.4580973633847119,0.6403536026764194,0.826347535536586,8.417980194091797,1.0
662,1,662,1,1,-0.9349332488522795,-0.24780663422295165,1.4580973633847119,0.6477207734393298,0.826347535536586,3.295351028442383,1.0
663,1,663,-1,1,0.25205217461161333,0.382037894814105,1.4580973633847119,0.6361931390852387,0.826347535536586,1.3393445014953613,1.0
664,1,664,-1,-1,-1.1432992541298528,0.6278438724316042,1.4580973633847119,0.6497443594692686,0.826347535536586,1.333344578742981,1.0
665,1,665,-1,1,-0.6903771503271737,0.382037894814105,1.4580973633847119,0.6453457204461485,0.826347535536586,3.4493398666381836,0.0
666,1,666,1,1,0.9418872100587996,-0.24780663422295165,1.4580973633847119,0.6294936751355715,0.826347535536586,4.629254341125488,1.0
667,1,667,1,1,-1.322373816365327,-0.24780663422295165,1.4580973633847119,0.651483476087521,0.826347535536586,2.5553722381591797,0.0
668,1,668,1,1,-0.05818319946211077,-0.24780663422295165,1.4580973633847119,0.6392060488357141,0.826347535536586,3.8993072509765625,0.0
669,1,669,-1,-1,0.8949740125879131,0.6278438724316042,1.4580973633847119,0.6299492815618472,0.826347535536586,1.0533478260040283,1.0
670,1,670,-1,-1,1.5933558453667622,0.6278438724316042,1.4580973633847119,0.6231668137668166,0.826347535536586,1.4183435440063477,1.0
671,1,671,-1,1,0.39055502969918604,0.382037894814105,1.4580973633847119,0.6348480423057112,0.826347535536586,1.0373477935791016,1.0
672,1,672,-1,1,1.2280939595859013,0.382037894814105,1.4580973633847119,0.6267141239355296,0.826347535536586,1.2883450984954834,1.0
673,1,673,-1,1,-0.20052505215518573,0.382037894814105,1.4580973633847119,0.640588428769531,0.826347535536586,4.574258327484131,1.0
674,1,674,-1,-1,-0.5663596107805906,0.6278438724316042,1.4580973633847119,0.6441413005593271,0.826347535536586,1.0993475914001465,1.0
675,1,675,1,-1,0.8444424051468741,-0.0020006566054523722,1.4580973633847119,0.630440028863701,0.826347535536586,2.410365581512451,1.0
676,1,676,-1,-1,-1.17157620359783,0.6278438724316042,1.4580973633847119,0.6500189764339527,0.826347535536586,2.5203707218170166,1.0
677,1,677,-1,-1,1.119135296735871,0.6278438724316042,1.4580973633847119,0.6277722966815609,0.826347535536586,1.0563478469848633,1.0
678,1,678,1,1,0.5181673189579535,-0.24780663422295165,1.4580973633847119,0.6336087113244001,0.826347535536586,1.7033398151397705,1.0
679,1,679,-1,-1,0.23379100083147875,0.6278438724316042,1.4580973633847119,0.6363704859422873,0.826347535536586,3.720320224761963,1.0
680,1,680,1,1,0.5776187445627535,-0.24780663422295165,1.4580973633847119,0.6330313375145333,0.826347535536586,2.147353172302246,0.0
681,1,681,1,1,-0.7793618965691379,-0.24780663422295165,1.4580973633847119,0.6462099127078996,0.826347535536586,2.2773592472076416,0.0
682,1,682,-1,1,0.39533522549210925,0.382037894814105,1.4580973633847119,0.6348016185264866,0.826347535536586,1.7793388366699219,1.0
683,1,683,1,1,1.525993014961567,-0.24780663422295165,1.4580973633847119,0.6238210206868153,0.826347535536586,6.164143085479736,0.0
684,1,684,-1,-1,-1.1860782179185383,0.6278438724316042,1.4580973633847119,0.650159815500029,0.826347535536586,2.9013795852661133,0.0
685,1,685,1,1,-0.3673352564018095,-0.24780663422295165,1.4580973633847119,0.6422084377461154,0.826347535536586,2.0123469829559326,0.0
686,1,686,-1,1,0.11360217032796056,0.382037894814105,1.4580973633847119,0.6375377225941471,0.826347535536586,3.351346969604492,1.0
687,1,687,1,1,1.137319730008878,-0.24780663422295165,1.4580973633847119,0.6275956951045205,0.826347535536586,2.604374647140503,0.0
688,1,688,1,1,0.6245879004919539,-0.24780663422295165,1.4580973633847119,0.632575187637063,0.826347535536586,2.367363452911377,1.0
689,1,689,1,-1,0.004676580927354609,-0.0020006566054523722,1.4580973633847119,0.6385955741410935,0.826347535536586,1.9873456954956055,0.0
690,1,690,1,1,0.827521329530586,-0.24780663422295165,1.4580973633847119,0.6306043611029406,0.826347535536586,4.335275650024414,0.0
691,1,691,-1,1,0.7726628526005269,0.382037894814105,1.4580973633847119,0.63113712961953,0.826347535536586,4.759244918823242,1.0
692,1,692,1,1,1.0843680585156608,-0.24780663422295165,1.4580973633847119,0.6281099453179987,0.826347535536586,2.0213472843170166,0.0
693,1,693,1,-1,-0.692807027633175,-0.0020006566054523722,1.4580973633847119,0.6453693186610509,0.826347535536586,3.9183058738708496,1.0
694,1,694,1,-1,-1.5241174537120064,-0.0020006566054523722,1.4580973633847119,0.65344274773368,0.826347535536586,1.9113421440124512,0.0
695,1,695,1,-1,-0.9495575874737363,-0.0020006566054523722,1.4580973633847119,0.6478628004810828,0.826347535536586,1.9813454151153564,0.0
696,1,696,-1,-1,-2.067388432468511,0.6278438724316042,1.4580973633847119,0.658718827013591,0.826347535536586,1.3433444499969482,1.0
697,1,697,1,-1,-0.37632975717572525,-0.0020006566054523722,1.4580973633847119,0.6422957895484793,0.826347535536586,2.2723591327667236,1.0
698,1,698,1,1,-0.25708108824778425,-0.24780663422295165,1.4580973633847119,0.6411376834543019,0.826347535536586,2.8763813972473145,0.0
699,1,699,-1,-1,0.20567047835591945,0.6278438724316042,1.4580973633847119,0.6366435837365283,0.826347535536586,4.010299205780029,1.0
700,1,700,1,1,0.815878027871619,-0.24780663422295165,1.4580973633847119,0.6307174372381195,0.826347535536586,1.543341875076294,1.0
701,1,701,1,-1,-1.6253176528058937,-0.0020006566054523722,1.4580973633847119,0.6544255726855747,0.826347535536586,1.039347767829895,1.0
702,1,702,-1,1,1.4606595463162744,0.382037894814105,1.4580973633847119,0.6244555190746974,0.826347535536586,1.2843451499938965,1.0
703,1,703,-1,-1,-1.1812672355283476,0.6278438724316042,1.4580973633847119,0.6501130927309184,0.826347535536586,1.8863410949707031,1.0
704,1,704,1,-1,0.570272667101482,-0.0020006566054523722,1.4580973633847119,0.6331026803408533,0.826347535536586,9.624272346496582,0.0
705,1,705,1,-1,1.8096683037920134,-0.0020006566054523722,1.4580973633847119,0.6210660542480653,0.826347535536586,2.4783687591552734,1.0
706,1,706,1,-1,-1.4149762626392557,-0.0020006566054523722,1.4580973633847119,0.6523828023301509,0.826347535536586,3.2763524055480957,1.0
707,1,707,-1,1,-0.03451609900305856,0.382037894814105,1.4580973633847119,0.6389762012951121,0.826347535536586,1.5143423080444336,1.0
708,1,708,1,1,1.0238578081274023,-0.24780663422295165,1.4580973633847119,0.6286976021058257,0.826347535536586,5.855165481567383,0.0
709,1,709,1,1,-0.08040570538004806,-0.24780663422295165,1.4580973633847119,0.6394218669220946,0.826347535536586,2.927377700805664,0.0
710,1,710,1,1,0.29616739561324995,-0.24780663422295165,1.4580973633847119,0.6357647057387931,0.826347535536586,1.4073436260223389,1.0
711,1,711,1,1,1.536758362323202,-0.24780663422295165,1.4580973633847119,0.6237164709715227,0.826347535536586,2.132352590560913,0.0
712,1,712,-1,1,-1.3437030989791974,0.382037894814105,1.4580973633847119,0.6516906194661568,0.826347535536586,5.9891557693481445,1.0
713,1,713,-1,-1,0.11225578002880597,0.6278438724316042,1.4580973633847119,0.6375507983192232,0.826347535536586,1.7483391761779785,1.0
714,1,714,-1,-1,-0.9960774042597593,0.6278438724316042,1.4580973633847119,0.6483145865161325,0.826347535536586,1.5823414325714111,1.0
715,1,715,1,1,0.29334031065569705,-0.24780663422295165,1.4580973633847119,0.6357921615112351,0.826347535536586,2.907379150390625,0.0
716,1,716,1,1,0.6593081305910266,-0.24780663422295165,1.4580973633847119,0.6322379955289207,0.826347535536586,1.7963385581970215,0.0
717,1,717,1,-1,1.1870558264252349,-0.0020006566054523722,1.4580973633847119,0.6271126735590541,0.826347535536586,1.4173434972763062,1.0
718,1,718,-1,1,-0.22521563223514485,0.382037894814105,1.4580973633847119,0.6408282160268349,0.826347535536586,5.529189109802246,1.0
719,1,719,-1,1,-1.2632120312825894,0.382037894814105,1.4580973633847119,0.6509089151765884,0.826347535536586,2.7553815841674805,1.0
720,1,720,-1,-1,0.8813103384628381,0.6278438724316042,1.4580973633847119,0.6300819789279088,0.826347535536586,1.9643447399139404,1.0
721,1,721,-1,-1,-0.48509075974858973,0.6278438724316042,1.4580973633847119,0.6433520426791922,0.826347535536586,1.588341236114502,1.0
722,1,722,1,-1,-0.17013129700738028,-0.0020006566054523722,1.4580973633847119,0.6402932540444959,0.826347535536586,1.5733414888381958,0.0
723,1,723,1,1,1.4431256497077074,-0.24780663422295165,1.4580973633847119,0.6246258028413811,0.826347535536586,1.1603467464447021,1.0
724,1,724,-1,1,2.3296251457433366,0.382037894814105,1.4580973633847119,0.6160163946352022,0.826347535536586,2.310360908508301,1.0
725,1,725,1,1,2.502994727897901,-0.24780663422295165,1.4580973633847119,0.614332683014408,0.826347535536586,1.354344367980957,1.0
726,1,726,1,-1,-0.40483223596633583,-0.0020006566054523722,1.4580973633847119,0.6425725967840092,0.826347535536586,3.038369655609131,1.0
727,1,727,-1,1,-0.14254355382943673,0.382037894814105,1.4580973633847119,0.6400253304375809,0.826347535536586,3.0213708877563477,1.0
728,1,728,1,-1,0.026517618625290132,-0.0020006566054523722,1.4580973633847119,0.638383460755774,0.826347535536586,2.590373992919922,1.0
729,1,729,-1,-1,-0.07652348650416381,0.6278438724316042,1.4580973633847119,0.6393841640162299,0.826347535536586,1.0403478145599365,1.0
730,1,730,-1,1,0.34844118630776993,0.382037894814105,1.4580973633847119,0.6352570388934242,0.826347535536586,2.952375888824463,0.0
731,1,731,1,-1,0.2516696725854216,-0.0020006566054523722,1.4580973633847119,0.6361968538263049,0.826347535536586,1.6603403091430664,1.0
732,1,732,-1,-1,-0.4196476914661578,0.6278438724316042,1.4580973633847119,0.6427164798936206,0.826347535536586,1.4973424673080444,1.0
733,1,733,-1,1,-1.7266057864883584,0.382037894814105,1.4580973633847119,0.6554092516309254,0.826347535536586,1.1333471536636353,1.0
734,1,734,1,-1,-0.2447047505439332,-0.0020006566054523722,1.4580973633847119,0.6410174883003661,0.826347535536586,2.4993696212768555,1.0
735,1,735,1,1,-0.6752055861702045,-0.24780663422295165,1.4580973633847119,0.6451983789196866,0.826347535536586,1.77833890914917,0.0
736,1,736,1,1,-0.06187798528889128,-0.24780663422295165,1.4580973633847119,0.639241931449928,0.826347535536586,2.094350814819336,1.0
737,1,737,1,-1,0.49333229051539884,-0.0020006566054523722,1.4580973633847119,0.6338499014194088,0.826347535536586,4.5812578201293945,1.0
738,1,738,-1,-1,1.439904893941002,0.6278438724316042,1.4580973633847119,0.6246570818226461,0.826347535536586,1.87734055519104,1.0
739,1,739,1,1,-0.15618502363578646,-0.24780663422295165,1.4580973633847119,0.6401578121621846,0.826347535536586,1.540341854095459,1.0
740,1,740,-1,1,-0.2602592395936065,0.382037894814105,1.4580973633847119,0.6411685486746427,0.826347535536586,1.631340742111206,1.0
741,1,741,1,-1,-0.3663695456341021,-0.0020006566054523722,1.4580973633847119,0.6421990590626018,0.826347535536586,1.0233477354049683,1.0
742,1,742,-1,-1,-0.41059160575528936,0.6278438724316042,1.4580973633847119,0.6426285299974461,0.826347535536586,1.6373406648635864,1.0
743,1,743,-1,-1,0.41185891817754683,0.6278438724316042,1.4580973633847119,0.6346411455470449,0.826347535536586,2.991373062133789,1.0
744,1,744,-1,-1,0.40156639499812297,0.6278438724316042,1.4580973633847119,0.6347411033405005,0.826347535536586,1.1873464584350586,1.0
745,1,745,-1,1,1.8980135149135329,0.382037894814105,1.4580973633847119,0.620208072953087,0.826347535536586,1.4893425703048706,1.0
746,1,746,-1,1,-1.2720305600664394,0.382037894814105,1.4580973633847119,0.6509945579935529,0.826347535536586,2.3173611164093018,0.0
747,1,747,1,1,-0.9727734662209797,-0.24780663422295165,1.4580973633847119,0.6480882658963414,0.826347535536586,4.0062994956970215,0.0
748,1,748,-1,-1,-0.6672278473980798,0.6278438724316042,1.4580973633847119,0.6451209015945909,0.826347535536586,1.2623454332351685,1.0
749,1,749,1,-1,-0.43205223079266336,-0.0020006566054523722,1.4580973633847119,0.6428369489329704,0.826347535536586,1.039347767829895,1.0
750,1,750,1,1,-1.1564339881966283,-0.24780663422295165,1.4580973633847119,0.6498719199335059,0.826347535536586,5.015226364135742,0.0
