,subj_idx,trial_idx,S,X,M,v,a,z,t,rt,response
0,1,0,-1,1,0.7858143069645172,-1.0983251328734984,1.2981222744832568,0.576493860387948,0.7983973768102429,3.1984057426452637,0.0
1,1,1,-1,1,-0.6696402494058433,-1.1695034878323074,1.2981222744832568,0.576493860387948,0.7983973768102429,2.2574095726013184,0.0
2,1,2,-1,1,-0.15703420718334304,-1.1444347183075936,1.2981222744832568,0.576493860387948,0.7983973768102429,1.7793883085250854,0.0
3,1,3,1,-1,1.0882519438928069,0.8064103103453407,1.2981222744832568,0.576493860387948,0.7983973768102429,1.546391248703003,1.0
4,1,4,-1,-1,-2.163206104507732,-0.4082667699025663,1.2981222744832568,0.576493860387948,0.7983973768102429,1.1153968572616577,1.0
5,1,5,-1,1,-0.871788002938609,-1.1793894334237407,1.2981222744832568,0.576493860387948,0.7983973768102429,1.402393102645874,0.0
6,1,6,-1,-1,-1.4404466379868015,-0.3729205410335865,1.2981222744832568,0.576493860387948,0.7983973768102429,2.0574002265930176,0.0
7,1,7,-1,-1,1.9157224771552535,-0.20878858958667046,1.2981222744832568,0.576493860387948,0.7983973768102429,4.46631383895874,1.0
8,1,8,1,-1,-1.0618314957274206,0.7012614401270922,1.2981222744832568,0.576493860387948,0.7983973768102429,1.4453926086425781,0.0
9,1,9,1,-1,0.33817206973250974,0.7697279891442006,1.2981222744832568,0.576493860387948,0.7983973768102429,2.0894017219543457,1.0
10,1,10,-1,-1,-0.9209275558046686,-0.34751369237755414,1.2981222744832568,0.576493860387948,0.7983973768102429,2.3384132385253906,0.0
11,1,11,-1,1,0.205151141235966,-1.1267222056236115,1.2981222744832568,0.576493860387948,0.7983973768102429,1.2593950033187866,0.0
12,1,12,-1,-1,0.33377006489250904,-0.2861532656840043,1.2981222744832568,0.576493860387948,0.7983973768102429,1.9593956470489502,1.0
13,1,13,1,-1,-0.6310055452882873,0.722330790792562,1.2981222744832568,0.576493860387948,0.7983973768102429,1.9983973503112793,1.0
14,1,14,1,-1,1.074369586406646,0.8057313998534328,1.2981222744832568,0.576493860387948,0.7983973768102429,1.3423938751220703,1.0
15,1,15,-1,1,0.09745911847639757,-1.1319888358929402,1.2981222744832568,0.576493860387948,0.7983973768102429,2.3064117431640625,0.0
16,1,16,1,-1,-0.7246328672722812,0.7177519884322611,1.2981222744832568,0.576493860387948,0.7983973768102429,2.2604095935821533,1.0
17,1,17,-1,1,2.676039131328135,-1.0058845321610779,1.2981222744832568,0.576493860387948,0.7983973768102429,2.5034210681915283,0.0
18,1,18,1,1,0.3406932743499959,-0.06442760139966133,1.2981222744832568,0.576493860387948,0.7983973768102429,5.825215816497803,1.0
19,1,19,1,-1,0.9826612746938992,0.8012464458332662,1.2981222744832568,0.576493860387948,0.7983973768102429,1.8773918151855469,1.0
20,1,20,1,-1,1.0174216402374772,0.8029463859834616,1.2981222744832568,0.576493860387948,0.7983973768102429,1.125396728515625,1.0
21,1,21,1,1,0.36197061190221724,-0.06338704271080248,1.2981222744832568,0.576493860387948,0.7983973768102429,2.7664332389831543,0.0
22,1,22,1,1,0.9543748108248936,-0.034415779976799746,1.2981222744832568,0.576493860387948,0.7983973768102429,1.8193891048431396,0.0
23,1,23,1,-1,-0.36970037304644315,0.7351098035216066,1.2981222744832568,0.576493860387948,0.7983973768102429,1.1903958320617676,1.0
24,1,24,1,-1,-0.9244147335916574,0.7079817454982074,1.2981222744832568,0.576493860387948,0.7983973768102429,1.497391939163208,1.0
25,1,25,1,-1,1.453367101908301,0.8242661040589407,1.2981222744832568,0.576493860387948,0.7983973768102429,1.4333927631378174,1.0
26,1,26,-1,1,-0.41145449168559456,-1.1568770286770655,1.2981222744832568,0.576493860387948,0.7983973768102429,1.8063883781433105,1.0
27,1,27,-1,1,-0.9451799090338173,-1.182978631808729,1.2981222744832568,0.576493860387948,0.7983973768102429,1.3423938751220703,0.0
28,1,28,-1,1,0.3655378560657315,-1.1188785649761839,1.2981222744832568,0.576493860387948,0.7983973768102429,1.6453900337219238,0.0
29,1,29,1,-1,-1.4012297893104328,0.6846633181813884,1.2981222744832568,0.576493860387948,0.7983973768102429,2.5674240589141846,1.0
30,1,30,-1,1,0.09655911263084677,-1.1320328502768036,1.2981222744832568,0.576493860387948,0.7983973768102429,3.14540958404541,0.0
31,1,31,-1,-1,-0.6090288905344078,-0.33226042747098833,1.2981222744832568,0.576493860387948,0.7983973768102429,1.166396141052246,0.0
32,1,32,-1,1,-0.8644570167119783,-1.1790309148169222,1.2981222744832568,0.576493860387948,0.7983973768102429,1.12239670753479,0.0
33,1,33,1,-1,-0.07106036993748238,0.7497146594775354,1.2981222744832568,0.576493860387948,0.7983973768102429,3.491384506225586,1.0
34,1,34,-1,-1,0.9063975624143348,-0.2581491736981798,1.2981222744832568,0.576493860387948,0.7983973768102429,4.330323696136475,0.0
35,1,35,-1,1,1.1000694752694962,-1.0829566242386193,1.2981222744832568,0.576493860387948,0.7983973768102429,1.2303953170776367,0.0
36,1,36,1,-1,0.07128758864205105,0.7566761228080728,1.2981222744832568,0.576493860387948,0.7983973768102429,2.453418731689453,1.0
37,1,37,-1,1,-0.5637158358336518,-1.164323301700734,1.2981222744832568,0.576493860387948,0.7983973768102429,1.7543885707855225,0.0
38,1,38,1,-1,-1.0458036973475338,0.7020452724475852,1.2981222744832568,0.576493860387948,0.7983973768102429,1.7093892097473145,1.0
39,1,39,1,-1,0.3923529735729381,0.7723776820450635,1.2981222744832568,0.576493860387948,0.7983973768102429,1.3343939781188965,1.0
40,1,40,1,-1,-0.04502083566134619,0.7509881112700056,1.2981222744832568,0.576493860387948,0.7983973768102429,1.1463963985443115,0.0
41,1,41,1,1,-0.39778348242178097,-0.10054247732778065,1.2981222744832568,0.576493860387948,0.7983973768102429,2.695430040359497,0.0
42,1,42,1,1,1.9273668157624937,0.01316795940991354,1.2981222744832568,0.576493860387948,0.7983973768102429,1.736388921737671,0.0
43,1,43,-1,-1,0.9945412633492952,-0.2538385453758653,1.2981222744832568,0.576493860387948,0.7983973768102429,2.8164334297180176,0.0
44,1,44,1,1,-0.8686937432760984,-0.12357213328929914,1.2981222744832568,0.576493860387948,0.7983973768102429,3.275400161743164,0.0
45,1,45,-1,-1,-0.06837734920617858,-0.30582010533983456,1.2981222744832568,0.576493860387948,0.7983973768102429,4.555307388305664,1.0
46,1,46,1,1,1.876364645060128,0.01067372103329535,1.2981222744832568,0.576493860387948,0.7983973768102429,1.1113969087600708,1.0
47,1,47,1,-1,-1.429020617854609,0.6833042201250054,1.2981222744832568,0.576493860387948,0.7983973768102429,3.364393711090088,1.0
48,1,48,-1,-1,0.26327428620120497,-0.2896008302519429,1.2981222744832568,0.576493860387948,0.7983973768102429,1.542391300201416,0.0
49,1,49,-1,1,-1.7294034084453316,-1.2213307317515512,1.2981222744832568,0.576493860387948,0.7983973768102429,5.973205089569092,0.0
50,1,50,1,-1,-0.6030855001734706,0.7236962081276139,1.2981222744832568,0.576493860387948,0.7983973768102429,2.416416883468628,1.0
51,1,51,-1,1,0.6184183756979605,-1.1065115561199,1.2981222744832568,0.576493860387948,0.7983973768102429,2.6184263229370117,1.0
52,1,52,-1,-1,0.8645236201513536,-0.26019700014035463,1.2981222744832568,0.576493860387948,0.7983973768102429,2.5374226570129395,1.0
53,1,53,-1,1,1.8807691571241005,-1.0447768550194039,1.2981222744832568,0.576493860387948,0.7983973768102429,1.144396424293518,0.0
54,1,54,-1,-1,-2.0898158236449484,-0.4046776509988438,1.2981222744832568,0.576493860387948,0.7983973768102429,2.713430881500244,0.0
55,1,55,-1,1,-0.059382539150763566,-1.139659107101376,1.2981222744832568,0.576493860387948,0.7983973768102429,3.131410598754883,0.0
56,1,56,1,-1,-0.5133035144631093,0.7280869560350826,1.2981222744832568,0.576493860387948,0.7983973768102429,1.339393973350525,1.0
57,1,57,-1,1,-1.7694141527960148,-1.2232874393320758,1.2981222744832568,0.576493860387948,0.7983973768102429,1.4033931493759155,0.0
58,1,58,-1,1,-1.875757082262277,-1.2284880927965067,1.2981222744832568,0.576493860387948,0.7983973768102429,1.3483939170837402,0.0
59,1,59,1,-1,-0.6204050629898946,0.7228492026443558,1.2981222744832568,0.576493860387948,0.7983973768102429,1.2153955698013306,1.0
60,1,60,-1,-1,0.14210677657271298,-0.29552647318738406,1.2981222744832568,0.576493860387948,0.7983973768102429,3.3753929138183594,0.0
61,1,61,1,1,0.7800739937821883,-0.042939883577818735,1.2981222744832568,0.576493860387948,0.7983973768102429,3.3303961753845215,1.0
62,1,62,-1,-1,0.3411957676358966,-0.2857901150082418,1.2981222744832568,0.576493860387948,0.7983973768102429,1.4623923301696777,1.0
63,1,63,1,1,-0.8595313274801598,-0.12312404943745432,1.2981222744832568,0.576493860387948,0.7983973768102429,2.179405927658081,1.0
64,1,64,1,1,-0.4194050595406481,-0.10159987089888188,1.2981222744832568,0.576493860387948,0.7983973768102429,1.1653962135314941,0.0
65,1,65,-1,1,0.6852312939800063,-1.1032441001952211,1.2981222744832568,0.576493860387948,0.7983973768102429,1.2943944931030273,0.0
66,1,66,-1,-1,-1.7558620132645715,-0.3883457890722303,1.2981222744832568,0.576493860387948,0.7983973768102429,2.4794199466705322,0.0
67,1,67,-1,-1,0.2017265820667054,-0.2926107932305949,1.2981222744832568,0.576493860387948,0.7983973768102429,1.081397294998169,1.0
68,1,68,1,1,0.7991836821786767,-0.04200533280267838,1.2981222744832568,0.576493860387948,0.7983973768102429,1.309394359588623,1.0
69,1,69,-1,1,0.10399324839120253,-1.131669287188113,1.2981222744832568,0.576493860387948,0.7983973768102429,1.1943957805633545,0.0
70,1,70,1,-1,-1.8920403232074545,0.6606604482557437,1.2981222744832568,0.576493860387948,0.7983973768102429,3.5613794326782227,1.0
71,1,71,-1,-1,0.19072414386908304,-0.29314886255609535,1.2981222744832568,0.576493860387948,0.7983973768102429,4.351322174072266,0.0
72,1,72,1,1,0.2759180455025759,-0.06759540503273231,1.2981222744832568,0.576493860387948,0.7983973768102429,2.8624300956726074,0.0
73,1,73,-1,1,1.2644555231155479,-1.074917397996447,1.2981222744832568,0.576493860387948,0.7983973768102429,1.5213916301727295,0.0
74,1,74,-1,-1,-0.2155025001963396,-0.31301519513134385,1.2981222744832568,0.576493860387948,0.7983973768102429,2.0684006214141846,1.0
75,1,75,1,1,2.90909178759845,0.06117878064196103,1.2981222744832568,0.576493860387948,0.7983973768102429,2.2964112758636475,1.0
76,1,76,1,-1,0.9314213703316516,0.798740581198202,1.2981222744832568,0.576493860387948,0.7983973768102429,2.3314130306243896,1.0
77,1,77,-1,-1,-1.1514397293390632,-0.3587867872593861,1.2981222744832568,0.576493860387948,0.7983973768102429,3.216404438018799,0.0
78,1,78,-1,-1,-0.39575965428790516,-0.32183059073516873,1.2981222744832568,0.576493860387948,0.7983973768102429,1.8323895931243896,1.0
79,1,79,1,-1,0.1989321207415517,0.762918521634311,1.2981222744832568,0.576493860387948,0.7983973768102429,1.6913894414901733,1.0
80,1,80,-1,-1,-0.6543514180886808,-0.33447690543642444,1.2981222744832568,0.576493860387948,0.7983973768102429,4.336323261260986,0.0
81,1,81,1,-1,-0.038727894974635024,0.751295864723367,1.2981222744832568,0.576493860387948,0.7983973768102429,0.9843975305557251,1.0
82,1,82,1,-1,0.8002081331733814,0.7923236564451291,1.2981222744832568,0.576493860387948,0.7983973768102429,1.9563953876495361,1.0
83,1,83,-1,-1,-0.6124569389651119,-0.33242807464825586,1.2981222744832568,0.576493860387948,0.7983973768102429,2.9484238624572754,0.0
84,1,84,1,-1,0.16893903232088509,0.7614517230423706,1.2981222744832568,0.576493860387948,0.7983973768102429,1.7393888235092163,1.0
85,1,85,1,1,0.5398121291159402,-0.05468978274947506,1.2981222744832568,0.576493860387948,0.7983973768102429,1.0663974285125732,0.0
86,1,86,1,1,0.03397350120515123,-0.07942759490013425,1.2981222744832568,0.576493860387948,0.7983973768102429,1.6693897247314453,0.0
87,1,87,-1,-1,0.07757754927197798,-0.2986822462246981,1.2981222744832568,0.576493860387948,0.7983973768102429,2.5404226779937744,0.0
88,1,88,-1,1,-0.20993776548577886,-1.1470219431954838,1.2981222744832568,0.576493860387948,0.7983973768102429,1.9523952007293701,0.0
89,1,89,1,1,-0.7717911399365049,-0.11883315475730084,1.2981222744832568,0.576493860387948,0.7983973768102429,1.3993932008743286,0.0
90,1,90,1,-1,-0.2804397731606008,0.7394750532882189,1.2981222744832568,0.576493860387948,0.7983973768102429,1.1063969135284424,1.0
91,1,91,-1,-1,-0.4306808064267393,-0.32353839408198515,1.2981222744832568,0.576493860387948,0.7983973768102429,3.0074195861816406,1.0
92,1,92,1,-1,-0.847091245975645,0.711763216121317,1.2981222744832568,0.576493860387948,0.7983973768102429,1.9823966026306152,1.0
93,1,93,-1,-1,1.3932440083403388,-0.23434016572408417,1.2981222744832568,0.576493860387948,0.7983973768102429,4.824288368225098,0.0
94,1,94,-1,-1,0.986605331758655,-0.2542266485654943,1.2981222744832568,0.576493860387948,0.7983973768102429,1.6093904972076416,1.0
95,1,95,1,-1,-1.756951005552185,0.6672669309941599,1.2981222744832568,0.576493860387948,0.7983973768102429,2.2684099674224854,1.0
96,1,96,1,1,1.7173016155523846,0.0028948146252792406,1.2981222744832568,0.576493860387948,0.7983973768102429,3.5183825492858887,0.0
97,1,97,-1,-1,-1.7023565550436661,-0.38572912853768304,1.2981222744832568,0.576493860387948,0.7983973768102429,1.8233892917633057,0.0
98,1,98,-1,1,-0.030629749801116643,-1.1382529647814887,1.2981222744832568,0.576493860387948,0.7983973768102429,1.894392490386963,0.0
99,1,99,-1,1,-0.11187818195956246,-1.1422263830642572,1.2981222744832568,0.576493860387948,0.7983973768102429,1.7203891277313232,0.0
100,1,100,1,-1,-1.303362725123615,0.6894494632403161,1.2981222744832568,0.576493860387948,0.7983973768102429,1.316394329071045,0.0
101,1,101,1,-1,-1.3789895621833645,0.6857509665548028,1.2981222744832568,0.576493860387948,0.7983973768102429,1.0143976211547852,1.0
102,1,102,-1,-1,-1.0598850234724257,-0.3543093452645111,1.2981222744832568,0.576493860387948,0.7983973768102429,1.3763935565948486,1.0
103,1,103,-1,1,-2.2675518241804764,-1.247648639643668,1.2981222744832568,0.576493860387948,0.7983973768102429,1.1633962392807007,0.0
104,1,104,1,1,0.06173253310252334,-0.0780700518445603,1.2981222744832568,0.576493860387948,0.7983973768102429,3.724367618560791,0.0
105,1,105,-1,-1,-0.11781522279147505,-0.3082378424646806,1.2981222744832568,0.576493860387948,0.7983973768102429,1.3593937158584595,1.0
106,1,106,-1,-1,-1.6546827709607979,-0.3833976634219721,1.2981222744832568,0.576493860387948,0.7983973768102429,2.193406581878662,0.0
107,1,107,-1,-1,0.24999817003879832,-0.2902500927827077,1.2981222744832568,0.576493860387948,0.7983973768102429,1.917393684387207,1.0
108,1,108,-1,1,0.8568956428818321,-1.0948489318909778,1.2981222744832568,0.576493860387948,0.7983973768102429,1.288394570350647,0.0
109,1,109,-1,1,-2.8330776157809097,-1.2753054258735872,1.2981222744832568,0.576493860387948,0.7983973768102429,1.755388617515564,0.0
110,1,110,-1,1,0.002745568900944434,-1.1366207597284068,1.2981222744832568,0.576493860387948,0.7983973768102429,1.4833921194076538,1.0
111,1,111,-1,-1,1.2622848358317162,-0.24074466555895133,1.2981222744832568,0.576493860387948,0.7983973768102429,1.2533950805664062,0.0
112,1,112,1,1,0.09633726635302947,-0.07637772282214,1.2981222744832568,0.576493860387948,0.7983973768102429,2.5854249000549316,1.0
113,1,113,-1,-1,-0.699262494934108,-0.3366732615887306,1.2981222744832568,0.576493860387948,0.7983973768102429,2.640427350997925,0.0
114,1,114,-1,-1,0.7820586899352427,-0.26422991071724944,1.2981222744832568,0.576493860387948,0.7983973768102429,1.773388385772705,0.0
115,1,115,1,1,-0.7607009040773902,-0.11829079172638247,1.2981222744832568,0.576493860387948,0.7983973768102429,3.3073978424072266,1.0
116,1,116,1,1,-0.11836682066851183,-0.08687773029419568,1.2981222744832568,0.576493860387948,0.7983973768102429,2.3464136123657227,1.0
117,1,117,1,-1,1.1058145216177035,0.8072692003641482,1.2981222744832568,0.576493860387948,0.7983973768102429,1.2033957242965698,1.0
118,1,118,1,-1,-2.069600323384299,0.6519769557593571,1.2981222744832568,0.576493860387948,0.7983973768102429,2.5954253673553467,0.0
119,1,119,-1,-1,0.5707493043724329,-0.27456390183080653,1.2981222744832568,0.576493860387948,0.7983973768102429,2.665428638458252,0.0
120,1,120,1,1,1.2695287415064933,-0.01900331776934997,1.2981222744832568,0.576493860387948,0.7983973768102429,7.2591118812561035,1.0
121,1,121,1,1,1.943261750418448,0.013945294089334953,1.2981222744832568,0.576493860387948,0.7983973768102429,1.0143976211547852,1.0
122,1,122,1,1,0.2091235634052554,-0.07086195934403236,1.2981222744832568,0.576493860387948,0.7983973768102429,0.9453974962234497,1.0
123,1,123,-1,1,0.2755086901480972,-1.123281401121279,1.2981222744832568,0.576493860387948,0.7983973768102429,1.5503911972045898,0.0
124,1,124,-1,-1,0.450473624861489,-0.2804459302127105,1.2981222744832568,0.576493860387948,0.7983973768102429,2.0744009017944336,0.0
125,1,125,1,1,0.518792677903546,-0.055717729622077,1.2981222744832568,0.576493860387948,0.7983973768102429,3.2074050903320312,1.0
126,1,126,-1,1,-0.9247317008585694,-1.1819786213216965,1.2981222744832568,0.576493860387948,0.7983973768102429,1.2673949003219604,0.0
127,1,127,1,1,0.04780865413763748,-0.07875099292583852,1.2981222744832568,0.576493860387948,0.7983973768102429,1.0953971147537231,1.0
128,1,128,1,-1,0.39866816991209864,0.7726865239011668,1.2981222744832568,0.576493860387948,0.7983973768102429,1.930394172668457,1.0
129,1,129,-1,-1,1.0297381603314384,-0.2521172568506562,1.2981222744832568,0.576493860387948,0.7983973768102429,2.915426254272461,0.0
130,1,130,-1,-1,-0.3303920416015663,-0.31863381683506065,1.2981222744832568,0.576493860387948,0.7983973768102429,1.881392002105713,0.0
131,1,131,-1,1,0.7515795159864147,-1.0999993700343322,1.2981222744832568,0.576493860387948,0.7983973768102429,1.4923920631408691,0.0
132,1,132,-1,1,-0.17978658911554773,-1.1455474133829846,1.2981222744832568,0.576493860387948,0.7983973768102429,2.915426254272461,0.0
133,1,133,-1,1,-2.035088363836444,-1.2362801179520089,1.2981222744832568,0.576493860387948,0.7983973768102429,2.0033977031707764,0.0
134,1,134,-1,-1,0.5410340204548056,-0.27601711451761507,1.2981222744832568,0.576493860387948,0.7983973768102429,2.0634005069732666,0.0
135,1,135,1,1,-2.165773558039212,-0.18700524225242218,1.2981222744832568,0.576493860387948,0.7983973768102429,3.294398784637451,1.0
136,1,136,1,-1,-0.36130555920630675,0.7355203481426743,1.2981222744832568,0.576493860387948,0.7983973768102429,3.253401756286621,0.0
137,1,137,1,-1,-0.9882246320038789,0.7048611509188772,1.2981222744832568,0.576493860387948,0.7983973768102429,1.3853933811187744,1.0
138,1,138,-1,-1,0.051399651460457704,-0.2999624646240623,1.2981222744832568,0.576493860387948,0.7983973768102429,1.3843934535980225,1.0
139,1,139,1,-1,-1.856734305342866,0.6623870732889667,1.2981222744832568,0.576493860387948,0.7983973768102429,1.5273915529251099,1.0
140,1,140,1,-1,-0.10496456002007576,0.7480565902058242,1.2981222744832568,0.576493860387948,0.7983973768102429,1.3423938751220703,1.0
141,1,141,-1,-1,-2.0779097259688553,-0.4040953886101941,1.2981222744832568,0.576493860387948,0.7983973768102429,2.7514326572418213,0.0
142,1,142,-1,1,0.9200223944979465,-1.0917617463005642,1.2981222744832568,0.576493860387948,0.7983973768102429,1.5073918104171753,0.0
143,1,143,-1,1,0.14806860581458745,-1.129513801520844,1.2981222744832568,0.576493860387948,0.7983973768102429,3.106412410736084,0.0
144,1,144,-1,-1,0.7525637456105291,-0.2656723477946875,1.2981222744832568,0.576493860387948,0.7983973768102429,3.8613576889038086,0.0
145,1,145,1,1,-0.697988025444665,-0.11522384640935332,1.2981222744832568,0.576493860387948,0.7983973768102429,2.0503997802734375,0.0
146,1,146,-1,1,1.139825154087606,-1.0810123905240328,1.2981222744832568,0.576493860387948,0.7983973768102429,1.0193976163864136,0.0
147,1,147,-1,-1,-1.2944048281971603,-0.3657784315595833,1.2981222744832568,0.576493860387948,0.7983973768102429,5.4652419090271,1.0
148,1,148,1,-1,-1.1000072531316736,0.6993944717635333,1.2981222744832568,0.576493860387948,0.7983973768102429,1.592390775680542,1.0
149,1,149,1,-1,0.3852939180348628,0.7720324620871034,1.2981222744832568,0.576493860387948,0.7983973768102429,1.7083892822265625,1.0
150,1,150,1,1,-0.8444827187399254,-0.12238810394890548,1.2981222744832568,0.576493860387948,0.7983973768102429,1.6273902654647827,1.0
151,1,151,-1,-1,0.09968072149105021,-0.29760130046033956,1.2981222744832568,0.576493860387948,0.7983973768102429,2.3614144325256348,0.0
152,1,152,1,1,-0.49636251778166174,-0.10536344101890471,1.2981222744832568,0.576493860387948,0.7983973768102429,4.576305866241455,1.0
153,1,153,-1,1,-0.8014599582680586,-1.1759500718131637,1.2981222744832568,0.576493860387948,0.7983973768102429,3.217404365539551,0.0
154,1,154,-1,-1,-0.5985288429951676,-0.3317469273362289,1.2981222744832568,0.576493860387948,0.7983973768102429,1.5643911361694336,0.0
155,1,155,1,1,0.8255316325476679,-0.0407167980589499,1.2981222744832568,0.576493860387948,0.7983973768102429,1.887392282485962,0.0
156,1,156,-1,1,-1.335255479415358,-1.202055103339807,1.2981222744832568,0.576493860387948,0.7983973768102429,2.452418565750122,0.0
157,1,157,-1,-1,0.4946678527445094,-0.27828463123870967,1.2981222744832568,0.576493860387948,0.7983973768102429,1.3173942565917969,1.0
158,1,158,1,1,-0.9905727836704659,-0.12953257331901985,1.2981222744832568,0.576493860387948,0.7983973768102429,3.1844067573547363,1.0
159,1,159,1,1,0.7982021750525296,-0.042053332970264326,1.2981222744832568,0.576493860387948,0.7983973768102429,1.018397569656372,1.0
160,1,160,1,1,-0.46650196230606855,-0.10390312389144359,1.2981222744832568,0.576493860387948,0.7983973768102429,3.555379867553711,1.0
161,1,161,1,-1,0.3396126413249289,0.7697984396544553,1.2981222744832568,0.576493860387948,0.7983973768102429,1.0123976469039917,1.0
162,1,162,1,1,0.4532499965893853,-0.0589230651752293,1.2981222744832568,0.576493860387948,0.7983973768102429,2.9044270515441895,0.0
163,1,163,-1,-1,-0.7319439269305971,-0.33827153242242086,1.2981222744832568,0.576493860387948,0.7983973768102429,1.5543911457061768,1.0
164,1,164,1,-1,0.21788119158417302,0.7638452174797239,1.2981222744832568,0.576493860387948,0.7983973768102429,2.694429874420166,0.0
165,1,165,-1,1,1.288279042882327,-1.0737523194037104,1.2981222744832568,0.576493860387948,0.7983973768102429,0.9783975481987,0.0
166,1,166,-1,1,-0.5251835424855831,-1.1624388971060997,1.2981222744832568,0.576493860387948,0.7983973768102429,3.470386028289795,1.0
167,1,167,-1,1,-0.8431248913333186,-1.1779876767538842,1.2981222744832568,0.576493860387948,0.7983973768102429,2.803434371948242,0.0
168,1,168,1,1,1.7468396602510212,0.004339359507251991,1.2981222744832568,0.576493860387948,0.7983973768102429,4.796289920806885,1.0
169,1,169,-1,1,0.06333950731284844,-1.1336574402363917,1.2981222744832568,0.576493860387948,0.7983973768102429,1.3923933506011963,0.0
170,1,170,1,-1,-0.05756745319677282,0.7503745245437419,1.2981222744832568,0.576493860387948,0.7983973768102429,1.3193942308425903,1.0
171,1,171,1,-1,-0.07273573007903003,0.7496327267381606,1.2981222744832568,0.576493860387948,0.7983973768102429,2.897427558898926,1.0
172,1,172,-1,-1,-0.26276746326536704,-0.3153266670379845,1.2981222744832568,0.576493860387948,0.7983973768102429,1.6563899517059326,0.0
173,1,173,-1,1,-1.3054983616559,-1.20059984478765,1.2981222744832568,0.576493860387948,0.7983973768102429,1.6603899002075195,0.0
174,1,174,-1,-1,-0.1979457789292351,-0.31215659151998876,1.2981222744832568,0.576493860387948,0.7983973768102429,3.7113685607910156,1.0
175,1,175,-1,1,-1.601180656437342,-1.2150600553389668,1.2981222744832568,0.576493860387948,0.7983973768102429,1.49839186668396,0.0
176,1,176,-1,-1,-0.9328250847243661,-0.34809553571499974,1.2981222744832568,0.576493860387948,0.7983973768102429,4.901282787322998,1.0
177,1,177,-1,1,1.0435439406016196,-1.085720980262802,1.2981222744832568,0.576493860387948,0.7983973768102429,1.4383926391601562,1.0
178,1,178,-1,-1,0.09595626140206952,-0.29778344351735436,1.2981222744832568,0.576493860387948,0.7983973768102429,2.3424134254455566,1.0
179,1,179,1,-1,-1.6711189630871364,0.6714645086915718,1.2981222744832568,0.576493860387948,0.7983973768102429,2.467419385910034,0.0
180,1,180,1,-1,-0.9755510449268351,0.7054809470338592,1.2981222744832568,0.576493860387948,0.7983973768102429,1.0283976793289185,1.0
181,1,181,1,1,0.16288909267409196,-0.07312303548318871,1.2981222744832568,0.576493860387948,0.7983973768102429,2.160404920578003,1.0
182,1,182,-1,1,0.3884802850854515,-1.1177565757328678,1.2981222744832568,0.576493860387948,0.7983973768102429,2.2634098529815674,0.0
183,1,183,1,-1,1.331001848639486,0.8182818860057761,1.2981222744832568,0.576493860387948,0.7983973768102429,2.0574002265930176,1.0
184,1,184,1,1,0.5284785411123832,-0.05524404680831717,1.2981222744832568,0.576493860387948,0.7983973768102429,1.5573911666870117,0.0
185,1,185,-1,1,-1.2498464977207249,-1.1978782152404002,1.2981222744832568,0.576493860387948,0.7983973768102429,2.3014116287231445,0.0
186,1,186,1,-1,-1.1868949339922001,0.6951452685419216,1.2981222744832568,0.576493860387948,0.7983973768102429,1.4903919696807861,1.0
187,1,187,1,1,1.1378860021242656,-0.025441247136836057,1.2981222744832568,0.576493860387948,0.7983973768102429,1.9973974227905273,1.0
188,1,188,-1,-1,-1.3758905420156091,-0.36976345399594546,1.2981222744832568,0.576493860387948,0.7983973768102429,3.7333669662475586,0.0
189,1,189,-1,1,0.47606686632278017,-1.1134731931005124,1.2981222744832568,0.576493860387948,0.7983973768102429,1.356393814086914,0.0
190,1,190,1,1,-1.7632203814936993,-0.16731855896537534,1.2981222744832568,0.576493860387948,0.7983973768102429,3.4773855209350586,0.0
191,1,191,-1,-1,0.7892226248424942,-0.2638795616805871,1.2981222744832568,0.576493860387948,0.7983973768102429,1.9393947124481201,0.0
192,1,192,-1,1,-1.1938106344555128,-1.195137806377439,1.2981222744832568,0.576493860387948,0.7983973768102429,0.9973976016044617,0.0
193,1,193,1,-1,0.6422660079083241,0.7845995673584175,1.2981222744832568,0.576493860387948,0.7983973768102429,1.1233967542648315,1.0
194,1,194,-1,-1,-0.8404665623486095,-0.3435787834327939,1.2981222744832568,0.576493860387948,0.7983973768102429,1.169396162033081,0.0
195,1,195,1,-1,-1.2883938253507004,0.6901815105974225,1.2981222744832568,0.576493860387948,0.7983973768102429,2.5514233112335205,1.0
196,1,196,-1,-1,0.2854279542763405,-0.28851741501029904,1.2981222744832568,0.576493860387948,0.7983973768102429,1.4193929433822632,0.0
197,1,197,-1,-1,-1.3175710138972365,-0.36691136352340487,1.2981222744832568,0.576493860387948,0.7983973768102429,2.826432704925537,0.0
198,1,198,-1,-1,-0.06063932972581994,-0.3054416809535558,1.2981222744832568,0.576493860387948,0.7983973768102429,2.2384085655212402,0.0
199,1,199,-1,-1,-0.7441901568766086,-0.33887042882780105,1.2981222744832568,0.576493860387948,0.7983973768102429,2.4954206943511963,0.0
200,1,200,1,-1,-0.026040118163434156,0.7519163547809598,1.2981222744832568,0.576493860387948,0.7983973768102429,1.401393175125122,1.0
201,1,201,1,-1,0.3027679147301019,0.7679965647580882,1.2981222744832568,0.576493860387948,0.7983973768102429,1.195395827293396,1.0
202,1,202,1,1,-0.6170379771034169,-0.11126502045388328,1.2981222744832568,0.576493860387948,0.7983973768102429,2.8654298782348633,0.0
203,1,203,1,-1,0.11574469033365643,0.7588502775082624,1.2981222744832568,0.576493860387948,0.7983973768102429,1.2263953685760498,1.0
204,1,204,-1,1,-1.1893955767824418,-1.1949218899540495,1.2981222744832568,0.576493860387948,0.7983973768102429,1.1883958578109741,0.0
205,1,205,1,1,-1.2710525946996452,-0.14324931319305712,1.2981222744832568,0.576493860387948,0.7983973768102429,1.944394826889038,0.0
206,1,206,-1,-1,-0.8883488089091335,-0.34592044331285887,1.2981222744832568,0.576493860387948,0.7983973768102429,1.8483903408050537,0.0
207,1,207,-1,1,2.0207836965038593,-1.0379295065125427,1.2981222744832568,0.576493860387948,0.7983973768102429,1.887392282485962,0.0
208,1,208,-1,-1,-0.09145469180996242,-0.30694869247171624,1.2981222744832568,0.576493860387948,0.7983973768102429,1.027397632598877,0.0
209,1,209,1,-1,0.9508393420922812,0.7996902084335621,1.2981222744832568,0.576493860387948,0.7983973768102429,3.5253820419311523,1.0
210,1,210,-1,1,-0.12250627348454794,-1.1427461451329448,1.2981222744832568,0.576493860387948,0.7983973768102429,1.8343896865844727,0.0
211,1,211,1,1,0.1863310400151178,-0.07197661751949334,1.2981222744832568,0.576493860387948,0.7983973768102429,5.9592061042785645,1.0
212,1,212,1,1,-0.8766717487989605,-0.12396229408578993,1.2981222744832568,0.576493860387948,0.7983973768102429,5.143265247344971,1.0
213,1,213,1,1,-0.3183673802969829,-0.0966586683268451,1.2981222744832568,0.576493860387948,0.7983973768102429,1.3553937673568726,0.0
214,1,214,-1,1,0.45420063196322824,-1.1145425515246863,1.2981222744832568,0.576493860387948,0.7983973768102429,3.3113975524902344,0.0
215,1,215,-1,1,1.0864822890812096,-1.0836210995100515,1.2981222744832568,0.576493860387948,0.7983973768102429,2.3274128437042236,0.0
216,1,216,1,-1,-1.8428685113589514,0.6630651737501959,1.2981222744832568,0.576493860387948,0.7983973768102429,1.8693914413452148,1.0
217,1,217,1,1,0.30224066326766064,-0.06630810916868235,1.2981222744832568,0.576493860387948,0.7983973768102429,1.1423964500427246,1.0
218,1,218,1,1,-1.0298231482757205,-0.13145209486773976,1.2981222744832568,0.576493860387948,0.7983973768102429,1.074397325515747,1.0
219,1,219,-1,-1,0.39070629011007074,-0.28336882502193594,1.2981222744832568,0.576493860387948,0.7983973768102429,5.15826416015625,0.0
220,1,220,-1,-1,0.09239365645304344,-0.2979576711210469,1.2981222744832568,0.576493860387948,0.7983973768102429,4.218331813812256,0.0
221,1,221,1,-1,0.44466281923450635,0.7749358716814511,1.2981222744832568,0.576493860387948,0.7983973768102429,1.7793883085250854,1.0
222,1,222,-1,1,-0.6192652904785602,-1.1670399229673876,1.2981222744832568,0.576493860387948,0.7983973768102429,2.0403993129730225,0.0
223,1,223,-1,1,-0.25418334345499355,-1.149185753422513,1.2981222744832568,0.576493860387948,0.7983973768102429,1.5783908367156982,0.0
224,1,224,1,1,1.284127145921487,-0.018289389322230357,1.2981222744832568,0.576493860387948,0.7983973768102429,2.3454136848449707,0.0
225,1,225,-1,1,-0.411326261972641,-1.156870757660231,1.2981222744832568,0.576493860387948,0.7983973768102429,2.219407796859741,0.0
226,1,226,-1,-1,0.863606922886076,-0.26024183081064395,1.2981222744832568,0.576493860387948,0.7983973768102429,2.7894344329833984,0.0
227,1,227,-1,1,0.8247209144746293,-1.0964224226119677,1.2981222744832568,0.576493860387948,0.7983973768102429,1.144396424293518,0.0
228,1,228,-1,1,-0.536632306002491,-1.1629987937719757,1.2981222744832568,0.576493860387948,0.7983973768102429,3.0294179916381836,0.0
229,1,229,1,-1,1.2691917820567682,0.8152590923087857,1.2981222744832568,0.576493860387948,0.7983973768102429,1.3303940296173096,1.0
230,1,230,1,1,0.2575541840698933,-0.06849348147335274,1.2981222744832568,0.576493860387948,0.7983973768102429,1.6173903942108154,0.0
231,1,231,-1,1,-0.8811796778633406,-1.179848729090874,1.2981222744832568,0.576493860387948,0.7983973768102429,1.1283966302871704,0.0
232,1,232,1,1,-1.188045148621822,-0.13918987112027556,1.2981222744832568,0.576493860387948,0.7983973768102429,1.7223889827728271,0.0
233,1,233,-1,1,-0.2685860990429174,-1.149890113751137,1.2981222744832568,0.576493860387948,0.7983973768102429,3.0784144401550293,1.0
234,1,234,1,-1,-0.02841585101670456,0.7518001706269597,1.2981222744832568,0.576493860387948,0.7983973768102429,1.9453949928283691,1.0
235,1,235,-1,-1,-1.4893497536577136,-0.37531212606149456,1.2981222744832568,0.576493860387948,0.7983973768102429,1.2673949003219604,0.0
236,1,236,-1,-1,-0.18024251991790952,-0.3112908215457078,1.2981222744832568,0.576493860387948,0.7983973768102429,1.7453887462615967,0.0
237,1,237,1,1,2.281312512348317,0.03047751560145555,1.2981222744832568,0.576493860387948,0.7983973768102429,2.204406976699829,1.0
238,1,238,-1,-1,1.4105284986648314,-0.23349487544537775,1.2981222744832568,0.576493860387948,0.7983973768102429,1.7973880767822266,0.0
239,1,239,-1,-1,0.5335502339503455,-0.276383105753768,1.2981222744832568,0.576493860387948,0.7983973768102429,3.941351890563965,0.0
240,1,240,1,-1,-0.3300165274200255,0.7370505242660397,1.2981222744832568,0.576493860387948,0.7983973768102429,2.916426181793213,0.0
241,1,241,-1,1,1.0304068347042366,-1.0863634445586487,1.2981222744832568,0.576493860387948,0.7983973768102429,1.903393030166626,0.0
242,1,242,-1,1,2.1529421307411525,-1.0314663573185197,1.2981222744832568,0.576493860387948,0.7983973768102429,1.4263927936553955,0.0
243,1,243,-1,-1,-0.3715421639818764,-0.3206462451891884,1.2981222744832568,0.576493860387948,0.7983973768102429,2.1204030513763428,0.0
244,1,244,1,-1,1.2493682091346032,0.8142896293297941,1.2981222744832568,0.576493860387948,0.7983973768102429,1.6773896217346191,1.0
245,1,245,-1,1,1.804690226549716,-1.0484974611363096,1.2981222744832568,0.576493860387948,0.7983973768102429,1.726388931274414,0.0
246,1,246,1,1,2.066039053848992,0.019949663271604953,1.2981222744832568,0.576493860387948,0.7983973768102429,5.164263725280762,1.0
247,1,247,-1,-1,-1.0979841375856334,-0.3561725654221565,1.2981222744832568,0.576493860387948,0.7983973768102429,3.7813634872436523,0.0
248,1,248,-1,-1,-0.3114637465835748,-0.3177081370220711,1.2981222744832568,0.576493860387948,0.7983973768102429,4.260328769683838,0.0
249,1,249,-1,1,-0.14944635564626468,-1.144063637817504,1.2981222744832568,0.576493860387948,0.7983973768102429,1.7243890762329102,0.0
250,1,250,-1,-1,0.4468783317969549,-0.2806217564140909,1.2981222744832568,0.576493860387948,0.7983973768102429,3.6043763160705566,1.0
251,1,251,1,1,0.24768844898323839,-0.06897596084095232,1.2981222744832568,0.576493860387948,0.7983973768102429,2.644427537918091,0.0
252,1,252,-1,1,0.2118560420795998,-1.1263943054427896,1.2981222744832568,0.576493860387948,0.7983973768102429,2.5174217224121094,0.0
253,1,253,1,1,-1.1797699216110582,-0.13878517483968142,1.2981222744832568,0.576493860387948,0.7983973768102429,1.5343914031982422,0.0
254,1,254,-1,1,-0.7189354096710073,-1.1719142456259795,1.2981222744832568,0.576493860387948,0.7983973768102429,2.0133981704711914,0.0
255,1,255,-1,-1,-1.359022302188926,-0.3689385202619042,1.2981222744832568,0.576493860387948,0.7983973768102429,2.0864014625549316,0.0
256,1,256,1,1,-0.529914716484769,-0.10700429630942918,1.2981222744832568,0.576493860387948,0.7983973768102429,1.4823920726776123,0.0
257,1,257,1,1,-0.1677589030128377,-0.08929322801885603,1.2981222744832568,0.576493860387948,0.7983973768102429,1.2763947248458862,1.0
258,1,258,1,1,-0.05080586873464675,-0.08357369211790515,1.2981222744832568,0.576493860387948,0.7983973768102429,1.4623923301696777,0.0
259,1,259,1,1,0.322461934349701,-0.06531919693882533,1.2981222744832568,0.576493860387948,0.7983973768102429,2.0944018363952637,1.0
260,1,260,-1,-1,0.502677004815907,-0.27789294723417524,1.2981222744832568,0.576493860387948,0.7983973768102429,2.3454136848449707,1.0
261,1,261,-1,1,1.0581212809913412,-1.0850080819424295,1.2981222744832568,0.576493860387948,0.7983973768102429,1.0443977117538452,1.0
262,1,262,1,1,-1.5179069390325948,-0.15532161463809352,1.2981222744832568,0.576493860387948,0.7983973768102429,5.691225528717041,1.0
263,1,263,-1,-1,-0.027726376983671044,-0.30383208770121445,1.2981222744832568,0.576493860387948,0.7983973768102429,1.2633949518203735,0.0
264,1,264,1,-1,-1.9117373145326926,0.6596971756932084,1.2981222744832568,0.576493860387948,0.7983973768102429,1.5543911457061768,1.0
265,1,265,1,-1,1.06862520342353,0.8054504733695367,1.2981222744832568,0.576493860387948,0.7983973768102429,2.662428379058838,1.0
266,1,266,-1,-1,-2.2930807919077307,-0.4146182334776125,1.2981222744832568,0.576493860387948,0.7983973768102429,1.501391887664795,0.0
267,1,267,1,-1,-0.640826658962986,0.7218504936151827,1.2981222744832568,0.576493860387948,0.7983973768102429,1.358393669128418,1.0
268,1,268,1,1,-0.005129940227486668,-0.08133993123672478,1.2981222744832568,0.576493860387948,0.7983973768102429,1.6013906002044678,1.0
269,1,269,1,1,2.2670464536492676,0.02977984037312245,1.2981222744832568,0.576493860387948,0.7983973768102429,1.379393458366394,0.0
270,1,270,1,1,-0.5836313008452292,-0.10963128187352583,1.2981222744832568,0.576493860387948,0.7983973768102429,1.931394338607788,0.0
271,1,271,1,1,0.4699335399081948,-0.05810716394140561,1.2981222744832568,0.576493860387948,0.7983973768102429,4.078341960906982,0.0
272,1,272,1,1,-0.24764808697048418,-0.0932001728755115,1.2981222744832568,0.576493860387948,0.7983973768102429,5.037272930145264,0.0
273,1,273,1,1,0.8083751338862185,-0.04155582896254634,1.2981222744832568,0.576493860387948,0.7983973768102429,1.7003893852233887,0.0
274,1,274,-1,1,-1.6539275733152707,-1.21763961974796,1.2981222744832568,0.576493860387948,0.7983973768102429,2.0073978900909424,0.0
275,1,275,1,1,-0.37102753802925204,-0.09923398981857329,1.2981222744832568,0.576493860387948,0.7983973768102429,2.669428825378418,0.0
276,1,276,-1,1,-0.30849042678312916,-1.1518416170748607,1.2981222744832568,0.576493860387948,0.7983973768102429,1.8403899669647217,0.0
277,1,277,-1,1,-1.083803583269897,-1.1897579606770081,1.2981222744832568,0.576493860387948,0.7983973768102429,4.142337322235107,0.0
278,1,278,1,-1,-0.7538056413962475,0.716325306944584,1.2981222744832568,0.576493860387948,0.7983973768102429,2.389415740966797,1.0
279,1,279,1,1,0.5272748056154025,-0.05530291495511405,1.2981222744832568,0.576493860387948,0.7983973768102429,1.1643961668014526,1.0
280,1,280,-1,1,-0.288462872016743,-1.1508621784548916,1.2981222744832568,0.576493860387948,0.7983973768102429,2.453418731689453,0.0
281,1,281,1,1,-0.08341338338805011,-0.08516834805694905,1.2981222744832568,0.576493860387948,0.7983973768102429,1.356393814086914,1.0
282,1,282,-1,-1,-0.6123557801922821,-0.3324231275236561,1.2981222744832568,0.576493860387948,0.7983973768102429,1.519391655921936,1.0
283,1,283,1,-1,-0.3612863292344661,0.7355212885758575,1.2981222744832568,0.576493860387948,0.7983973768102429,1.4953919649124146,1.0
284,1,284,1,1,-2.2532128695786864,-0.1912814227259861,1.2981222744832568,0.576493860387948,0.7983973768102429,3.146409511566162,0.0
285,1,285,-1,-1,-1.671691113733815,-0.38422944882802285,1.2981222744832568,0.576493860387948,0.7983973768102429,2.698430061340332,1.0
286,1,286,-1,-1,-0.20375378282649043,-0.31244062935627265,1.2981222744832568,0.576493860387948,0.7983973768102429,2.415416955947876,1.0
287,1,287,1,-1,-0.2836977645133447,0.7393157226763882,1.2981222744832568,0.576493860387948,0.7983973768102429,2.5894250869750977,1.0
288,1,288,-1,-1,0.7602829753998606,-0.26529484230985545,1.2981222744832568,0.576493860387948,0.7983973768102429,2.3124120235443115,0.0
289,1,289,1,1,-1.6262625466824239,-0.16062069723007133,1.2981222744832568,0.576493860387948,0.7983973768102429,4.241330146789551,1.0
290,1,290,-1,-1,1.4895486486890157,-0.22963043030505936,1.2981222744832568,0.576493860387948,0.7983973768102429,4.4823126792907715,0.0
291,1,291,1,-1,-1.4044742760099809,0.6845046480085899,1.2981222744832568,0.576493860387948,0.7983973768102429,3.213404655456543,1.0
292,1,292,-1,-1,-1.285995458579378,-0.36536717509471156,1.2981222744832568,0.576493860387948,0.7983973768102429,2.426417350769043,0.0
293,1,293,1,1,1.109510197732109,-0.02682895317576834,1.2981222744832568,0.576493860387948,0.7983973768102429,3.430388927459717,1.0
294,1,294,-1,1,1.2706510218482971,-1.0746144098983188,1.2981222744832568,0.576493860387948,0.7983973768102429,2.5824246406555176,0.0
295,1,295,-1,-1,1.2193652742749108,-0.24284362754563488,1.2981222744832568,0.576493860387948,0.7983973768102429,1.7093892097473145,1.0
296,1,296,-1,-1,0.09559004903694536,-0.2978013529694915,1.2981222744832568,0.576493860387948,0.7983973768102429,1.9933972358703613,0.0
297,1,297,1,-1,1.0162262971236364,0.8028879282624134,1.2981222744832568,0.576493860387948,0.7983973768102429,1.8743915557861328,1.0
298,1,298,1,-1,1.9073873770168877,0.8464697628119604,1.2981222744832568,0.576493860387948,0.7983973768102429,1.0603975057601929,1.0
299,1,299,-1,1,-0.16167543976336846,-1.14466169571378,1.2981222744832568,0.576493860387948,0.7983973768102429,1.7413887977600098,0.0
300,1,300,-1,-1,-0.33964281442002553,-0.31908622174762463,1.2981222744832568,0.576493860387948,0.7983973768102429,2.2254080772399902,1.0
301,1,301,1,-1,1.113135454986801,0.8076272273404592,1.2981222744832568,0.576493860387948,0.7983973768102429,3.5193824768066406,1.0
302,1,302,1,-1,1.1871951211227634,0.8112490822319663,1.2981222744832568,0.576493860387948,0.7983973768102429,2.470419406890869,1.0
303,1,303,-1,-1,0.6479743309056808,-0.27078724640296903,1.2981222744832568,0.576493860387948,0.7983973768102429,5.5322370529174805,0.0
304,1,304,1,1,-0.5075012207094088,-0.10590817431016535,1.2981222744832568,0.576493860387948,0.7983973768102429,5.067270755767822,1.0
305,1,305,1,1,0.3416716045477588,-0.06437975659833897,1.2981222744832568,0.576493860387948,0.7983973768102429,2.2474091053009033,1.0
306,1,306,1,-1,-0.6847959994714549,0.719700192657782,1.2981222744832568,0.576493860387948,0.7983973768102429,1.640390157699585,1.0
307,1,307,1,1,0.12438570740225624,-0.07500602634126749,1.2981222744832568,0.576493860387948,0.7983973768102429,1.3383939266204834,0.0
308,1,308,1,1,-0.8484364552029324,-0.12258145966457915,1.2981222744832568,0.576493860387948,0.7983973768102429,1.5213916301727295,1.0
309,1,309,-1,1,0.3597158739981409,-1.1191632864086443,1.2981222744832568,0.576493860387948,0.7983973768102429,1.6923894882202148,0.0
310,1,310,-1,-1,-0.25635946856886604,-0.31501328691966657,1.2981222744832568,0.576493860387948,0.7983973768102429,3.491384506225586,1.0
311,1,311,-1,-1,-0.4088592443835923,-0.32247122033749104,1.2981222744832568,0.576493860387948,0.7983973768102429,1.082397222518921,1.0
312,1,312,-1,1,0.7640381722955558,-1.0993900850125495,1.2981222744832568,0.576493860387948,0.7983973768102429,2.0754010677337646,0.0
313,1,313,-1,1,1.838822049441767,-1.0468282595837306,1.2981222744832568,0.576493860387948,0.7983973768102429,2.0403993129730225,0.0
314,1,314,1,1,-1.4995242816164924,-0.15442261898829973,1.2981222744832568,0.576493860387948,0.7983973768102429,2.9464240074157715,1.0
315,1,315,-1,-1,0.35738079332439954,-0.2849985935564511,1.2981222744832568,0.576493860387948,0.7983973768102429,6.5771613121032715,0.0
316,1,316,1,-1,-0.09335898761756922,0.7486241555402073,1.2981222744832568,0.576493860387948,0.7983973768102429,1.4673923254013062,1.0
317,1,317,1,1,-0.052243032321960384,-0.08364397596119241,1.2981222744832568,0.576493860387948,0.7983973768102429,4.322324275970459,0.0
318,1,318,-1,1,0.07770618045046557,-1.1329548445038826,1.2981222744832568,0.576493860387948,0.7983973768102429,2.8224329948425293,0.0
319,1,319,-1,-1,1.1843959832101574,-0.24455378510512074,1.2981222744832568,0.576493860387948,0.7983973768102429,4.822288513183594,1.0
320,1,320,1,1,-0.027573960692266017,-0.08243754603228995,1.2981222744832568,0.576493860387948,0.7983973768102429,3.297398567199707,1.0
321,1,321,-1,1,-2.4584453271826723,-1.256984201139937,1.2981222744832568,0.576493860387948,0.7983973768102429,1.567391037940979,0.0
322,1,322,-1,1,-0.6317514540565459,-1.1676505532198662,1.2981222744832568,0.576493860387948,0.7983973768102429,2.132403612136841,0.0
323,1,323,-1,-1,-0.8969008118134598,-0.3463386751948978,1.2981222744832568,0.576493860387948,0.7983973768102429,1.2423951625823975,0.0
324,1,324,1,1,-1.870714485829084,-0.17257551012257538,1.2981222744832568,0.576493860387948,0.7983973768102429,2.220407724380493,1.0
325,1,325,-1,1,-1.4376225529509892,-1.2070613193458803,1.2981222744832568,0.576493860387948,0.7983973768102429,1.7673884630203247,0.0
326,1,326,-1,-1,-1.3444157769391487,-0.3682241946689869,1.2981222744832568,0.576493860387948,0.7983973768102429,1.778388261795044,1.0
327,1,327,-1,1,1.4668602698517506,-1.065018884267193,1.2981222744832568,0.576493860387948,0.7983973768102429,1.2923945188522339,0.0
328,1,328,1,-1,-0.44570788039084136,0.73139269032586,1.2981222744832568,0.576493860387948,0.7983973768102429,3.277400016784668,1.0
329,1,329,1,-1,0.872680027548965,0.7958678620679187,1.2981222744832568,0.576493860387948,0.7983973768102429,4.279327392578125,1.0
330,1,330,1,1,0.38016571776423963,-0.062497219185985685,1.2981222744832568,0.576493860387948,0.7983973768102429,1.3173942565917969,1.0
331,1,331,-1,1,-1.3151222527069895,-1.2010704968807169,1.2981222744832568,0.576493860387948,0.7983973768102429,1.9853968620300293,0.0
332,1,332,-1,1,0.353397798723908,-1.1194722690577812,1.2981222744832568,0.576493860387948,0.7983973768102429,1.5773909091949463,1.0
333,1,333,-1,1,-1.3396238197484218,-1.2022687350725512,1.2981222744832568,0.576493860387948,0.7983973768102429,1.3733935356140137,0.0
334,1,334,-1,1,-0.0893557200315999,-1.1411249321239731,1.2981222744832568,0.576493860387948,0.7983973768102429,2.13840389251709,0.0
335,1,335,-1,1,0.6538602101609805,-1.104778289036597,1.2981222744832568,0.576493860387948,0.7983973768102429,1.5183916091918945,0.0
336,1,336,-1,-1,-0.2559105515759039,-0.3149913328346474,1.2981222744832568,0.576493860387948,0.7983973768102429,2.461419105529785,1.0
337,1,337,1,1,0.04559315504271422,-0.07885934091945959,1.2981222744832568,0.576493860387948,0.7983973768102429,1.9613957405090332,0.0
338,1,338,1,1,-0.48151711000992625,-0.10463743298295476,1.2981222744832568,0.576493860387948,0.7983973768102429,3.3483948707580566,1.0
339,1,339,-1,-1,-0.13488579798033595,-0.3090726713192303,1.2981222744832568,0.576493860387948,0.7983973768102429,2.0884015560150146,0.0
340,1,340,-1,1,-0.4250304845053956,-1.1575409565418118,1.2981222744832568,0.576493860387948,0.7983973768102429,1.548391342163086,0.0
341,1,341,-1,1,-0.72292829198723,-1.1721095157521189,1.2981222744832568,0.576493860387948,0.7983973768102429,2.3234126567840576,0.0
342,1,342,-1,-1,0.7121217870883689,-0.26765014371165413,1.2981222744832568,0.576493860387948,0.7983973768102429,1.8213891983032227,1.0
343,1,343,1,1,1.0273682516556044,-0.030846068357585806,1.2981222744832568,0.576493860387948,0.7983973768102429,1.7153891324996948,1.0
344,1,344,1,1,-0.5402519049906074,-0.10750983189590575,1.2981222744832568,0.576493860387948,0.7983973768102429,2.6024255752563477,1.0
345,1,345,-1,1,1.5638807195162168,-1.0602741425133162,1.2981222744832568,0.576493860387948,0.7983973768102429,1.6713896989822388,1.0
346,1,346,1,1,0.5952533001191735,-0.051978457045949625,1.2981222744832568,0.576493860387948,0.7983973768102429,3.382392406463623,0.0
347,1,347,1,1,1.7362555348577597,0.003821747582597429,1.2981222744832568,0.576493860387948,0.7983973768102429,1.659389853477478,1.0
348,1,348,1,1,1.68214816389748,0.0011756507743926337,1.2981222744832568,0.576493860387948,0.7983973768102429,1.7443888187408447,0.0
349,1,349,-1,1,0.1368966552323757,-1.130060160773795,1.2981222744832568,0.576493860387948,0.7983973768102429,1.2263953685760498,0.0
350,1,350,-1,1,1.3302932069844904,-1.0716976354751244,1.2981222744832568,0.576493860387948,0.7983973768102429,2.724431276321411,0.0
351,1,351,-1,1,0.5814875643824974,-1.1083176409510775,1.2981222744832568,0.576493860387948,0.7983973768102429,2.732431650161743,0.0
352,1,352,-1,1,-1.2833885640580132,-1.1995185750121,1.2981222744832568,0.576493860387948,0.7983973768102429,1.8303894996643066,0.0
353,1,353,1,-1,-0.13527445133727425,0.7465742985097381,1.2981222744832568,0.576493860387948,0.7983973768102429,2.216407537460327,1.0
354,1,354,-1,1,0.17390912932062444,-1.1282500822611914,1.2981222744832568,0.576493860387948,0.7983973768102429,1.2733948230743408,1.0
355,1,355,-1,1,0.67885983735147,-1.1035556934356459,1.2981222744832568,0.576493860387948,0.7983973768102429,1.0363976955413818,0.0
356,1,356,1,1,-1.3825287428981279,-0.148701004426688,1.2981222744832568,0.576493860387948,0.7983973768102429,5.642229080200195,0.0
357,1,357,1,1,0.38450679346722466,-0.06228492081779706,1.2981222744832568,0.576493860387948,0.7983973768102429,2.5434229373931885,0.0
358,1,358,-1,-1,-1.6226172714607539,-0.3818295144918966,1.2981222744832568,0.576493860387948,0.7983973768102429,2.9514236450195312,1.0
359,1,359,-1,-1,-0.19495348511483412,-0.31201025472758925,1.2981222744832568,0.576493860387948,0.7983973768102429,5.836215019226074,0.0
360,1,360,-1,-1,1.2576738887595182,-0.24097016186590553,1.2981222744832568,0.576493860387948,0.7983973768102429,2.691429853439331,0.0
361,1,361,-1,1,1.3821842641486781,-1.0691599265031375,1.2981222744832568,0.576493860387948,0.7983973768102429,1.8703913688659668,0.0
362,1,362,-1,-1,0.6820583884210766,-0.26912038079479955,1.2981222744832568,0.576493860387948,0.7983973768102429,1.103397011756897,0.0
363,1,363,1,-1,1.0519479229930069,0.8046348784194672,1.2981222744832568,0.576493860387948,0.7983973768102429,1.0323976278305054,1.0
364,1,364,1,-1,1.8975686383431987,0.8459895817829446,1.2981222744832568,0.576493860387948,0.7983973768102429,2.4954206943511963,1.0
365,1,365,1,-1,0.05594549486783608,0.7559258245650307,1.2981222744832568,0.576493860387948,0.7983973768102429,3.473385810852051,1.0
366,1,366,-1,1,-1.0531667869595511,-1.1882596818382536,1.2981222744832568,0.576493860387948,0.7983973768102429,1.5183916091918945,0.0
367,1,367,-1,1,-0.7301527123313577,-1.1724628228020542,1.2981222744832568,0.576493860387948,0.7983973768102429,1.5653910636901855,0.0
368,1,368,-1,1,1.4505136974320703,-1.0658183060897124,1.2981222744832568,0.576493860387948,0.7983973768102429,1.4403927326202393,1.0
369,1,369,-1,-1,0.5061791130696028,-0.27772167819434523,1.2981222744832568,0.576493860387948,0.7983973768102429,1.288394570350647,0.0
370,1,370,-1,-1,0.8294993646217969,-0.2619098457124403,1.2981222744832568,0.576493860387948,0.7983973768102429,1.2773947715759277,1.0
371,1,371,-1,-1,-1.0046262484444546,-0.3516069395546835,1.2981222744832568,0.576493860387948,0.7983973768102429,1.4073930978775024,0.0
372,1,372,1,-1,0.8967542792371883,0.7970452025932769,1.2981222744832568,0.576493860387948,0.7983973768102429,1.7083892822265625,1.0
373,1,373,1,1,0.5717160928643337,-0.05312953365317949,1.2981222744832568,0.576493860387948,0.7983973768102429,1.3283941745758057,0.0
374,1,374,1,-1,-0.5434494567668572,0.7266126821922667,1.2981222744832568,0.576493860387948,0.7983973768102429,1.1193968057632446,1.0
375,1,375,-1,-1,0.4221558772413485,-0.28183079701114006,1.2981222744832568,0.576493860387948,0.7983973768102429,1.940394639968872,1.0
376,1,376,-1,-1,0.006036487960160472,-0.30218092987228745,1.2981222744832568,0.576493860387948,0.7983973768102429,2.2534093856811523,0.0
377,1,377,-1,1,-1.9181027631705143,-1.2305589894064122,1.2981222744832568,0.576493860387948,0.7983973768102429,1.1713961362838745,0.0
378,1,378,-1,-1,-0.8103629146502594,-0.342106577988763,1.2981222744832568,0.576493860387948,0.7983973768102429,1.2943944931030273,0.0
379,1,379,1,-1,-0.3010768127709283,0.738465808084201,1.2981222744832568,0.576493860387948,0.7983973768102429,1.7443888187408447,1.0
380,1,380,1,1,0.340756778204357,-0.06442449577202963,1.2981222744832568,0.576493860387948,0.7983973768102429,2.0664005279541016,0.0
381,1,381,-1,-1,-1.2866245229933473,-0.3653979392088871,1.2981222744832568,0.576493860387948,0.7983973768102429,2.0163981914520264,0.0
382,1,382,-1,-1,-0.5467009927505038,-0.3292123094704081,1.2981222744832568,0.576493860387948,0.7983973768102429,4.443315505981445,1.0
383,1,383,1,-1,1.3353838134930975,0.8184961840396118,1.2981222744832568,0.576493860387948,0.7983973768102429,1.2573950290679932,1.0
384,1,384,-1,-1,-0.639579514068536,-0.33375449206861346,1.2981222744832568,0.576493860387948,0.7983973768102429,1.9763963222503662,0.0
385,1,385,1,1,-1.3209405758139956,-0.14568906262555814,1.2981222744832568,0.576493860387948,0.7983973768102429,2.5374226570129395,0.0
386,1,386,-1,1,1.598560101562389,-1.0585781628248878,1.2981222744832568,0.576493860387948,0.7983973768102429,0.9863975644111633,0.0
387,1,387,-1,-1,-0.39393000587336746,-0.32174111259672067,1.2981222744832568,0.576493860387948,0.7983973768102429,5.918209075927734,0.0
388,1,388,1,1,-1.2387577487679473,-0.1416699481781858,1.2981222744832568,0.576493860387948,0.7983973768102429,3.7143683433532715,0.0
389,1,389,-1,-1,0.214263941717035,-0.2919976592570665,1.2981222744832568,0.576493860387948,0.7983973768102429,2.8664298057556152,0.0
390,1,390,-1,1,-0.7816824988583745,-1.174982863994902,1.2981222744832568,0.576493860387948,0.7983973768102429,1.3523938655853271,0.0
391,1,391,-1,1,-1.5063013124590816,-1.2104200234022877,1.2981222744832568,0.576493860387948,0.7983973768102429,1.0123976469039917,1.0
392,1,392,1,-1,-0.7980285570574474,0.7141626050076055,1.2981222744832568,0.576493860387948,0.7983973768102429,3.257401466369629,1.0
393,1,393,-1,1,1.194665500554968,-1.0783304478760587,1.2981222744832568,0.576493860387948,0.7983973768102429,1.4683923721313477,0.0
394,1,394,1,-1,1.9637120173249174,0.84922429418721,1.2981222744832568,0.576493860387948,0.7983973768102429,2.7494325637817383,1.0
395,1,395,-1,1,-0.3664230373405993,-1.154674785516913,1.2981222744832568,0.576493860387948,0.7983973768102429,1.1803959608078003,1.0
396,1,396,1,1,-2.3207056543827362,-0.19458212721924184,1.2981222744832568,0.576493860387948,0.7983973768102429,2.0814013481140137,0.0
397,1,397,-1,-1,-0.21324074410281202,-0.31290458495986806,1.2981222744832568,0.576493860387948,0.7983973768102429,1.733388900756836,1.0
398,1,398,1,1,0.6177434999268868,-0.0508785838702456,1.2981222744832568,0.576493860387948,0.7983973768102429,2.5534234046936035,0.0
399,1,399,-1,1,0.32238768016064023,-1.1209888050545598,1.2981222744832568,0.576493860387948,0.7983973768102429,2.156404733657837,0.0
400,1,400,-1,-1,0.44891636431862847,-0.28052208734396405,1.2981222744832568,0.576493860387948,0.7983973768102429,4.415317535400391,1.0
401,1,401,-1,-1,0.10774037255364348,-0.29720714682519755,1.2981222744832568,0.576493860387948,0.7983973768102429,1.0253976583480835,1.0
402,1,402,-1,-1,-1.1663470229616892,-0.3595158217952308,1.2981222744832568,0.576493860387948,0.7983973768102429,6.510166168212891,0.0
403,1,403,-1,-1,-0.8505159393652962,-0.3440702437269528,1.2981222744832568,0.576493860387948,0.7983973768102429,1.7493886947631836,1.0
404,1,404,-1,1,1.4681703828785766,-1.0649548137748157,1.2981222744832568,0.576493860387948,0.7983973768102429,1.8133888244628906,0.0
405,1,405,-1,-1,-0.6634212486293849,-0.33492046144771787,1.2981222744832568,0.576493860387948,0.7983973768102429,2.4874203205108643,1.0
406,1,406,1,-1,-0.9189476058939334,0.7082491129362153,1.2981222744832568,0.576493860387948,0.7983973768102429,3.5263819694519043,0.0
407,1,407,1,1,1.2194873916752311,-0.02145056763044502,1.2981222744832568,0.576493860387948,0.7983973768102429,2.5854249000549316,1.0
408,1,408,1,-1,0.7537727043235254,0.7900527525389418,1.2981222744832568,0.576493860387948,0.7983973768102429,1.4253928661346436,1.0
409,1,409,-1,1,0.23268578032232318,-1.1253756363982288,1.2981222744832568,0.576493860387948,0.7983973768102429,1.5083918571472168,0.0
410,1,410,-1,1,2.7827981666407178,-1.0006635292260984,1.2981222744832568,0.576493860387948,0.7983973768102429,3.10941219329834,0.0
411,1,411,-1,1,-0.5281837687662523,-1.1625856218322186,1.2981222744832568,0.576493860387948,0.7983973768102429,1.8053884506225586,0.0
412,1,412,-1,1,1.7329502444554228,-1.0520058729159123,1.2981222744832568,0.576493860387948,0.7983973768102429,1.9473950862884521,0.0
413,1,413,1,-1,0.355653811059887,0.7705829258950954,1.2981222744832568,0.576493860387948,0.7983973768102429,1.3993932008743286,1.0
414,1,414,-1,1,0.7110750746748954,-1.1019802216442027,1.2981222744832568,0.576493860387948,0.7983973768102429,2.7854342460632324,0.0
415,1,415,1,-1,-1.926265567582645,0.6589866779672611,1.2981222744832568,0.576493860387948,0.7983973768102429,1.905393123626709,1.0
416,1,416,1,-1,-0.6710988776911034,0.7203700442802381,1.2981222744832568,0.576493860387948,0.7983973768102429,1.1283966302871704,1.0
417,1,417,-1,-1,-0.29104043464658347,-0.31670934407445006,1.2981222744832568,0.576493860387948,0.7983973768102429,1.7863881587982178,0.0
418,1,418,1,-1,-0.41570326491803006,0.7328600526431365,1.2981222744832568,0.576493860387948,0.7983973768102429,1.0673974752426147,1.0
419,1,419,-1,1,-1.0959807115279638,-1.1903534776952056,1.2981222744832568,0.576493860387948,0.7983973768102429,1.2273954153060913,1.0
420,1,420,1,-1,-1.3858627657923335,0.6854148356024196,1.2981222744832568,0.576493860387948,0.7983973768102429,1.6603899002075195,1.0
421,1,421,-1,-1,-1.988304911837892,-0.39971330519967724,1.2981222744832568,0.576493860387948,0.7983973768102429,1.930394172668457,1.0
422,1,422,-1,-1,-0.3049242303869918,-0.3173883249035395,1.2981222744832568,0.576493860387948,0.7983973768102429,1.688389539718628,1.0
423,1,423,1,-1,0.23353985617703854,0.7646109974772467,1.2981222744832568,0.576493860387948,0.7983973768102429,1.2483950853347778,1.0
424,1,424,1,-1,1.458393586572964,0.8245119220462427,1.2981222744832568,0.576493860387948,0.7983973768102429,3.2654008865356445,0.0
425,1,425,1,-1,1.3407101882570858,0.8187566680182667,1.2981222744832568,0.576493860387948,0.7983973768102429,2.5044209957122803,1.0
426,1,426,-1,-1,-0.3610385484617043,-0.3201325705639152,1.2981222744832568,0.576493860387948,0.7983973768102429,4.330323696136475,0.0
427,1,427,-1,-1,0.3618330215181633,-0.28478085932535036,1.2981222744832568,0.576493860387948,0.7983973768102429,1.9833967685699463,0.0
428,1,428,-1,-1,0.27716843747080316,-0.288921342990324,1.2981222744832568,0.576493860387948,0.7983973768102429,1.916393518447876,0.0
429,1,429,-1,1,1.4271049564234437,-1.0669631001125544,1.2981222744832568,0.576493860387948,0.7983973768102429,1.103397011756897,0.0
430,1,430,1,1,-0.46544171482113816,-0.10385127296178298,1.2981222744832568,0.576493860387948,0.7983973768102429,5.372248649597168,0.0
431,1,431,-1,1,-1.7794349461503194,-1.2237775017549937,1.2981222744832568,0.576493860387948,0.7983973768102429,1.2313953638076782,0.0
432,1,432,-1,-1,0.1695586387638564,-0.2941839521290871,1.2981222744832568,0.576493860387948,0.7983973768102429,1.6353901624679565,1.0
433,1,433,-1,1,1.1848581570176946,-1.078810071631018,1.2981222744832568,0.576493860387948,0.7983973768102429,1.4383926391601562,0.0
434,1,434,1,1,-1.167958006526901,-0.13820751840862106,1.2981222744832568,0.576493860387948,0.7983973768102429,5.577233791351318,0.0
435,1,435,1,1,-0.685148475487269,-0.11459593395383977,1.2981222744832568,0.576493860387948,0.7983973768102429,3.1754074096679688,1.0
436,1,436,1,-1,-1.1868409870145544,0.6951479067947665,1.2981222744832568,0.576493860387948,0.7983973768102429,1.222395420074463,1.0
437,1,437,-1,1,-0.155451908513706,-1.1443573366979338,1.2981222744832568,0.576493860387948,0.7983973768102429,2.3444135189056396,0.0
438,1,438,1,-1,0.16288190698945493,0.7611555020336257,1.2981222744832568,0.576493860387948,0.7983973768102429,1.0433976650238037,1.0
439,1,439,1,-1,0.6146159831364131,0.7832473552476231,1.2981222744832568,0.576493860387948,0.7983973768102429,2.5914251804351807,1.0
440,1,440,1,1,0.5055426918534944,-0.05636571427136883,1.2981222744832568,0.576493860387948,0.7983973768102429,1.4633923768997192,0.0
441,1,441,1,1,1.485838101413516,-0.008424805143870964,1.2981222744832568,0.576493860387948,0.7983973768102429,1.8393900394439697,1.0
442,1,442,1,1,1.5820915658100279,-0.003717572461927568,1.2981222744832568,0.576493860387948,0.7983973768102429,1.8623909950256348,1.0
443,1,443,-1,1,0.34473442437094726,-1.1198959475107684,1.2981222744832568,0.576493860387948,0.7983973768102429,1.633390188217163,0.0
444,1,444,1,-1,0.3063464023331665,0.768171569095882,1.2981222744832568,0.576493860387948,0.7983973768102429,1.265394926071167,1.0
445,1,445,-1,-1,-0.11680409722151516,-0.3081883938203299,1.2981222744832568,0.576493860387948,0.7983973768102429,4.774291515350342,0.0
446,1,446,1,1,0.5546331485050235,-0.053964967416484946,1.2981222744832568,0.576493860387948,0.7983973768102429,3.001420021057129,1.0
447,1,447,1,-1,0.2969874940422503,0.7677138758663393,1.2981222744832568,0.576493860387948,0.7983973768102429,1.5623910427093506,1.0
448,1,448,1,-1,-0.3358614515318047,0.736764680863156,1.2981222744832568,0.576493860387948,0.7983973768102429,1.5053918361663818,1.0
449,1,449,1,1,0.4748273633006975,-0.057867833694361714,1.2981222744832568,0.576493860387948,0.7983973768102429,2.3494138717651367,1.0
450,1,450,1,1,-0.09892680594476204,-0.08592702505757033,1.2981222744832568,0.576493860387948,0.7983973768102429,1.3283941745758057,0.0
451,1,451,-1,-1,0.05779592623126199,-0.2996496576634755,1.2981222744832568,0.576493860387948,0.7983973768102429,4.100340366363525,0.0
452,1,452,-1,1,2.5809577477492196,-1.0105344447541802,1.2981222744832568,0.576493860387948,0.7983973768102429,1.902392864227295,1.0
453,1,453,-1,1,-0.009385146181008247,-1.1372140069309582,1.2981222744832568,0.576493860387948,0.7983973768102429,1.3043944835662842,0.0
454,1,454,1,-1,-1.2581510670396945,0.6916605191838275,1.2981222744832568,0.576493860387948,0.7983973768102429,2.204406976699829,1.0
455,1,455,1,1,0.36047371376689047,-0.06346024784547818,1.2981222744832568,0.576493860387948,0.7983973768102429,1.733388900756836,0.0
456,1,456,1,1,1.1108343868599704,-0.026764194297957296,1.2981222744832568,0.576493860387948,0.7983973768102429,3.1594085693359375,0.0
457,1,457,-1,-1,-0.35496925579591604,-0.3198357545171183,1.2981222744832568,0.576493860387948,0.7983973768102429,5.760220527648926,0.0
458,1,458,-1,-1,-1.0307163105868085,-0.3528828623898814,1.2981222744832568,0.576493860387948,0.7983973768102429,1.316394329071045,0.0
459,1,459,1,-1,-0.37963404781386084,0.7346240015942664,1.2981222744832568,0.576493860387948,0.7983973768102429,6.453170299530029,1.0
460,1,460,1,-1,0.8875280196915621,0.7965939964913713,1.2981222744832568,0.576493860387948,0.7983973768102429,1.2963944673538208,1.0
461,1,461,1,-1,-0.981747616338364,0.7051779064768545,1.2981222744832568,0.576493860387948,0.7983973768102429,1.169396162033081,1.0
462,1,462,1,-1,-0.575228479005658,0.7250585433046891,1.2981222744832568,0.576493860387948,0.7983973768102429,2.7514326572418213,1.0
463,1,463,-1,-1,0.49462222386506716,-0.27828686269867736,1.2981222744832568,0.576493860387948,0.7983973768102429,3.702369213104248,1.0
464,1,464,-1,1,1.0718732136967388,-1.0843355498161669,1.2981222744832568,0.576493860387948,0.7983973768102429,1.096397042274475,0.0
465,1,465,1,1,0.35765027211515016,-0.06359832699828542,1.2981222744832568,0.576493860387948,0.7983973768102429,3.941351890563965,0.0
466,1,466,1,-1,-1.1060406153869247,0.6990994128774144,1.2981222744832568,0.576493860387948,0.7983973768102429,3.7773637771606445,0.0
467,1,467,-1,1,-0.5431777824183628,-1.1633188973723694,1.2981222744832568,0.576493860387948,0.7983973768102429,3.48838472366333,0.0
468,1,468,1,1,0.4467334179133059,-0.059241755544566364,1.2981222744832568,0.576493860387948,0.7983973768102429,1.2093956470489502,1.0
469,1,469,-1,1,0.7941785440772072,-1.0979160835936286,1.2981222744832568,0.576493860387948,0.7983973768102429,2.2664098739624023,0.0
470,1,470,-1,-1,-1.5976309457244133,-0.3806075693926193,1.2981222744832568,0.576493860387948,0.7983973768102429,1.3023943901062012,1.0
471,1,471,1,1,0.7228072062941318,-0.045740490240070535,1.2981222744832568,0.576493860387948,0.7983973768102429,2.171405553817749,1.0
472,1,472,-1,-1,2.3228194749718654,-0.18887969274998848,1.2981222744832568,0.576493860387948,0.7983973768102429,0.9483975172042847,1.0
473,1,473,-1,-1,-0.008679481908941855,-0.30290060780542627,1.2981222744832568,0.576493860387948,0.7983973768102429,2.3744149208068848,0.0
474,1,474,-1,-1,0.615408055891137,-0.27237988553589537,1.2981222744832568,0.576493860387948,0.7983973768102429,3.980349063873291,1.0
475,1,475,-1,-1,0.3689375648668135,-0.2844334148063325,1.2981222744832568,0.576493860387948,0.7983973768102429,2.7774338722229004,0.0
476,1,476,-1,-1,-0.11494723315323141,-0.30809758471249205,1.2981222744832568,0.576493860387948,0.7983973768102429,3.638373851776123,1.0
477,1,477,-1,-1,-1.8174135904325723,-0.3913559414598557,1.2981222744832568,0.576493860387948,0.7983973768102429,2.9264254570007324,1.0
478,1,478,-1,1,-0.3795344555272397,-1.15531599356674,1.2981222744832568,0.576493860387948,0.7983973768102429,1.5363914966583252,0.0
479,1,479,-1,1,0.02906089867444897,-1.1353338202803298,1.2981222744832568,0.576493860387948,0.7983973768102429,1.4593924283981323,0.0
480,1,480,-1,-1,-0.03141532728217164,-0.30401249416778725,1.2981222744832568,0.576493860387948,0.7983973768102429,0.9593974947929382,1.0
481,1,481,-1,1,1.0277080384174142,-1.0864954279855612,1.2981222744832568,0.576493860387948,0.7983973768102429,1.729388952255249,0.0
482,1,482,-1,-1,-1.2082879374161017,-0.36156692348251257,1.2981222744832568,0.576493860387948,0.7983973768102429,1.3903932571411133,1.0
483,1,483,-1,1,1.3879667780299443,-1.0688771352446995,1.2981222744832568,0.576493860387948,0.7983973768102429,1.6273902654647827,0.0
484,1,484,1,-1,-1.1802202393862506,0.695471691500182,1.2981222744832568,0.576493860387948,0.7983973768102429,1.0363976955413818,1.0
485,1,485,1,1,-1.4252057240141554,-0.1507881031252708,1.2981222744832568,0.576493860387948,0.7983973768102429,1.0843971967697144,0.0
486,1,486,-1,-1,-0.10528681563763898,-0.30762514630899435,1.2981222744832568,0.576493860387948,0.7983973768102429,1.3993932008743286,1.0
487,1,487,-1,1,-0.20871815063880111,-1.1469622984761683,1.2981222744832568,0.576493860387948,0.7983973768102429,1.2683948278427124,0.0
488,1,488,-1,-1,-1.0446984832653634,-0.35356665429918804,1.2981222744832568,0.576493860387948,0.7983973768102429,2.461419105529785,0.0
489,1,489,1,-1,0.300168402299967,0.7678694367638392,1.2981222744832568,0.576493860387948,0.7983973768102429,1.7013893127441406,1.0
490,1,490,1,1,-0.4302179461132676,-0.1021286702868302,1.2981222744832568,0.576493860387948,0.7983973768102429,2.1024022102355957,1.0
491,1,491,1,1,-0.8842578762371025,-0.12433329025959107,1.2981222744832568,0.576493860387948,0.7983973768102429,0.9743975400924683,1.0
492,1,492,1,-1,-0.3541678635389055,0.7358694139610322,1.2981222744832568,0.576493860387948,0.7983973768102429,1.5363914966583252,1.0
493,1,493,1,1,-0.37091916827210836,-0.09922869004400664,1.2981222744832568,0.576493860387948,0.7983973768102429,2.649427890777588,1.0
494,1,494,-1,1,-0.08907302690527978,-1.1411111071429034,1.2981222744832568,0.576493860387948,0.7983973768102429,1.7103891372680664,0.0
495,1,495,1,-1,-1.1406918607648702,0.6974048092001776,1.2981222744832568,0.576493860387948,0.7983973768102429,2.0493998527526855,1.0
496,1,496,1,-1,-0.5271964951103273,0.7274075260222282,1.2981222744832568,0.576493860387948,0.7983973768102429,1.5743908882141113,1.0
497,1,497,-1,1,0.2260398024712877,-1.125700654976417,1.2981222744832568,0.576493860387948,0.7983973768102429,2.461419105529785,0.0
498,1,498,1,1,-0.538282333746038,-0.10741351089395552,1.2981222744832568,0.576493860387948,0.7983973768102429,1.2463951110839844,1.0
499,1,499,-1,-1,0.8360806871536061,-0.26158798907375846,1.2981222744832568,0.576493860387948,0.7983973768102429,1.898392677307129,0.0
500,1,500,-1,1,0.14921072031029017,-1.1294579469215897,1.2981222744832568,0.576493860387948,0.7983973768102429,1.3263940811157227,0.0
501,1,501,-1,-1,0.08553410324412698,-0.29829313450671296,1.2981222744832568,0.576493860387948,0.7983973768102429,2.5934252738952637,0.0
502,1,502,-1,-1,-0.17814527500689786,-0.3111882567201293,1.2981222744832568,0.576493860387948,0.7983973768102429,1.6213903427124023,0.0
503,1,503,1,1,-0.27048165712026195,-0.09431683842441797,1.2981222744832568,0.576493860387948,0.7983973768102429,2.6194264888763428,0.0
504,1,504,-1,1,2.65782917300404,-1.006775082038918,1.2981222744832568,0.576493860387948,0.7983973768102429,3.002419948577881,0.0
505,1,505,1,-1,0.06476760846879427,0.7563572660900356,1.2981222744832568,0.576493860387948,0.7983973768102429,1.3743934631347656,1.0
506,1,506,-1,-1,-0.5009913294378854,-0.3269768988036354,1.2981222744832568,0.576493860387948,0.7983973768102429,1.5343914031982422,1.0
507,1,507,1,-1,0.7137823709264548,0.7880970431469864,1.2981222744832568,0.576493860387948,0.7983973768102429,1.5373914241790771,1.0
508,1,508,1,-1,-0.3669105246325381,0.7352462398121229,1.2981222744832568,0.576493860387948,0.7983973768102429,1.0063976049423218,1.0
509,1,509,1,-1,0.4168998592209793,0.7735781365231111,1.2981222744832568,0.576493860387948,0.7983973768102429,2.1074025630950928,1.0
510,1,510,-1,-1,-1.637114199131575,-0.38253848026417,1.2981222744832568,0.576493860387948,0.7983973768102429,1.1903958320617676,1.0
511,1,511,1,-1,-1.1263208646876681,0.698107616344116,1.2981222744832568,0.576493860387948,0.7983973768102429,1.6463899612426758,1.0
512,1,512,-1,-1,-1.6764962784844069,-0.384464443263786,1.2981222744832568,0.576493860387948,0.7983973768102429,1.5593911409378052,0.0
513,1,513,-1,-1,0.5309841186709201,-0.27650860047527936,1.2981222744832568,0.576493860387948,0.7983973768102429,1.6443901062011719,0.0
514,1,514,1,-1,-0.024415965024627354,0.7519957832647385,1.2981222744832568,0.576493860387948,0.7983973768102429,1.2263953685760498,1.0
515,1,515,-1,-1,-2.193121873817738,-0.4097297872379365,1.2981222744832568,0.576493860387948,0.7983973768102429,2.2764103412628174,0.0
516,1,516,-1,1,0.7421619464016879,-1.100459932068246,1.2981222744832568,0.576493860387948,0.7983973768102429,1.7833882570266724,0.0
517,1,517,1,1,0.7379816690714471,-0.04499838991605455,1.2981222744832568,0.576493860387948,0.7983973768102429,1.5623910427093506,0.0
518,1,518,-1,-1,-1.0209511581219612,-0.3524053019704732,1.2981222744832568,0.576493860387948,0.7983973768102429,2.9894208908081055,0.0
519,1,519,-1,-1,0.6383137154746036,-0.2712596944854352,1.2981222744832568,0.576493860387948,0.7983973768102429,5.993203639984131,1.0
520,1,520,-1,-1,-1.3064330994469278,-0.36636666879228114,1.2981222744832568,0.576493860387948,0.7983973768102429,4.17933464050293,1.0
521,1,521,1,-1,0.2506583151082074,0.7654481680648253,1.2981222744832568,0.576493860387948,0.7983973768102429,2.3084118366241455,1.0
522,1,522,-1,1,-0.6348399873742772,-1.167801596562188,1.2981222744832568,0.576493860387948,0.7983973768102429,1.6133904457092285,0.0
523,1,523,1,1,0.26837367216194313,-0.06796435924104544,1.2981222744832568,0.576493860387948,0.7983973768102429,3.359394073486328,1.0
524,1,524,1,1,1.1685244736163578,-0.023942886374066524,1.2981222744832568,0.576493860387948,0.7983973768102429,1.7863881587982178,0.0
525,1,525,1,-1,-0.8608317276673264,0.7110912440017652,1.2981222744832568,0.576493860387948,0.7983973768102429,1.1313966512680054,1.0
526,1,526,-1,-1,0.7998859160748356,-0.26335807818593404,1.2981222744832568,0.576493860387948,0.7983973768102429,3.231403350830078,1.0
527,1,527,1,-1,-1.0559676036960068,0.7015482111476131,1.2981222744832568,0.576493860387948,0.7983973768102429,1.8343896865844727,1.0
528,1,528,-1,-1,0.8076421592447078,-0.2629787625782597,1.2981222744832568,0.576493860387948,0.7983973768102429,1.6623897552490234,1.0
529,1,529,1,1,-0.49280826096624886,-0.1051896216769576,1.2981222744832568,0.576493860387948,0.7983973768102429,4.939280033111572,1.0
530,1,530,1,-1,2.2396738784174137,0.8627200857376656,1.2981222744832568,0.576493860387948,0.7983973768102429,1.6983892917633057,1.0
531,1,531,-1,1,1.212786075866983,-1.0774442692344988,1.2981222744832568,0.576493860387948,0.7983973768102429,1.2063956260681152,0.0
532,1,532,1,-1,-0.177798187230589,0.7444946942003207,1.2981222744832568,0.576493860387948,0.7983973768102429,1.2273954153060913,1.0
533,1,533,-1,-1,-0.7317427986395617,-0.3382616963331875,1.2981222744832568,0.576493860387948,0.7983973768102429,4.391319274902344,0.0
534,1,534,-1,-1,1.5588485537875052,-0.2262413494010061,1.2981222744832568,0.576493860387948,0.7983973768102429,1.5113917589187622,0.0
535,1,535,-1,-1,0.12841449647340009,-0.29619608802959174,1.2981222744832568,0.576493860387948,0.7983973768102429,1.917393684387207,1.0
536,1,536,1,1,-0.1065784335216043,-0.08630122448639709,1.2981222744832568,0.576493860387948,0.7983973768102429,2.4934206008911133,0.0
537,1,537,1,-1,0.3143511584176273,0.768563038116639,1.2981222744832568,0.576493860387948,0.7983973768102429,1.5683910846710205,0.0
538,1,538,1,1,0.43361417776094013,-0.05988334612413326,1.2981222744832568,0.576493860387948,0.7983973768102429,4.764292240142822,1.0
539,1,539,-1,1,1.3096928053099393,-1.0727050889172587,1.2981222744832568,0.576493860387948,0.7983973768102429,1.8863921165466309,0.0
540,1,540,1,1,-0.1878178615430115,-0.09027420242586556,1.2981222744832568,0.576493860387948,0.7983973768102429,1.8383898735046387,0.0
541,1,541,-1,1,-1.3790182353993958,-1.2041953013733175,1.2981222744832568,0.576493860387948,0.7983973768102429,1.4333927631378174,0.0
542,1,542,1,1,-1.0225966423145096,-0.1310986858216327,1.2981222744832568,0.576493860387948,0.7983973768102429,2.3194124698638916,1.0
543,1,543,-1,1,1.6335195494586343,-1.0568684866411613,1.2981222744832568,0.576493860387948,0.7983973768102429,2.918426036834717,0.0
544,1,544,1,-1,0.7882436152591646,0.7917385370408291,1.2981222744832568,0.576493860387948,0.7983973768102429,1.4913920164108276,1.0
545,1,545,-1,-1,0.1821345062969289,-0.2935689349447538,1.2981222744832568,0.576493860387948,0.7983973768102429,1.0923970937728882,1.0
546,1,546,1,-1,0.2082917076010326,0.7633762480489462,1.2981222744832568,0.576493860387948,0.7983973768102429,1.0893971920013428,0.0
547,1,547,1,1,1.976749670711983,0.015583005872951083,1.2981222744832568,0.576493860387948,0.7983973768102429,1.360393762588501,1.0
548,1,548,-1,1,-0.1888746600701165,-1.1459918614335705,1.2981222744832568,0.576493860387948,0.7983973768102429,2.13840389251709,0.0
549,1,549,-1,1,0.6034343943083103,-1.1072443410367363,1.2981222744832568,0.576493860387948,0.7983973768102429,2.2934112548828125,0.0
550,1,550,1,-1,0.9578350133111331,0.8000323286097031,1.2981222744832568,0.576493860387948,0.7983973768102429,2.0073978900909424,1.0
551,1,551,-1,1,0.8744683783497077,-1.0939895451122872,1.2981222744832568,0.576493860387948,0.7983973768102429,1.1843959093093872,0.0
552,1,552,1,-1,0.2181016480193157,0.7638559988032113,1.2981222744832568,0.576493860387948,0.7983973768102429,1.795388102531433,1.0
553,1,553,1,1,-1.9168543139789638,-0.17483195780856886,1.2981222744832568,0.576493860387948,0.7983973768102429,3.549380302429199,1.0
554,1,554,-1,-1,-1.21929709535896,-0.3621053214341522,1.2981222744832568,0.576493860387948,0.7983973768102429,2.2394087314605713,0.0
555,1,555,-1,1,0.37562272280656994,-1.1183853690729177,1.2981222744832568,0.576493860387948,0.7983973768102429,2.5944252014160156,0.0
556,1,556,1,-1,0.502500710690027,0.7777644079281317,1.2981222744832568,0.576493860387948,0.7983973768102429,1.3783934116363525,1.0
557,1,557,1,1,1.3623619085505643,-0.014463353201653872,1.2981222744832568,0.576493860387948,0.7983973768102429,2.0353991985321045,1.0
558,1,558,1,1,0.23890623038606218,-0.06940545131861763,1.2981222744832568,0.576493860387948,0.7983973768102429,4.703296661376953,1.0
559,1,559,-1,1,0.06639595805940948,-1.1335079658778824,1.2981222744832568,0.576493860387948,0.7983973768102429,1.4213929176330566,0.0
560,1,560,1,1,0.4005282245412023,-0.061501399887555465,1.2981222744832568,0.576493860387948,0.7983973768102429,2.119403123855591,1.0
561,1,561,-1,1,-0.30789005125486246,-1.1518122559778257,1.2981222744832568,0.576493860387948,0.7983973768102429,2.0734009742736816,0.0
562,1,562,1,-1,0.6762386375674687,0.7862609836370495,1.2981222744832568,0.576493860387948,0.7983973768102429,4.718295574188232,1.0
563,1,563,-1,1,1.3008064878013454,-1.0731396703056881,1.2981222744832568,0.576493860387948,0.7983973768102429,2.0874016284942627,0.0
564,1,564,1,-1,-1.496346007794612,0.6800117020028041,1.2981222744832568,0.576493860387948,0.7983973768102429,1.0733973979949951,1.0
565,1,565,-1,-1,0.8605638117474214,-0.2603906528015871,1.2981222744832568,0.576493860387948,0.7983973768102429,3.8263602256774902,0.0
566,1,566,-1,-1,-1.6480833981769343,-0.3830749240437762,1.2981222744832568,0.576493860387948,0.7983973768102429,2.392415761947632,1.0
567,1,567,1,-1,-0.8093757724856068,0.7136076745056503,1.2981222744832568,0.576493860387948,0.7983973768102429,1.1843959093093872,1.0
568,1,568,-1,-1,1.3422233769548773,-0.23683530691216317,1.2981222744832568,0.576493860387948,0.7983973768102429,1.4213929176330566,0.0
569,1,569,1,-1,-0.019944264940589776,0.7522144697599354,1.2981222744832568,0.576493860387948,0.7983973768102429,1.9533953666687012,1.0
570,1,570,1,1,0.21905059935221577,-0.07037648208524133,1.2981222744832568,0.576493860387948,0.7983973768102429,5.814216613769531,0.0
571,1,571,1,-1,0.7184543066943025,0.788325522078859,1.2981222744832568,0.576493860387948,0.7983973768102429,2.7574329376220703,1.0
572,1,572,1,1,0.41272945032144615,-0.06090470439079976,1.2981222744832568,0.576493860387948,0.7983973768102429,2.664428472518921,1.0
573,1,573,1,1,0.9989821839371404,-0.03223427631990674,1.2981222744832568,0.576493860387948,0.7983973768102429,1.1553963422775269,0.0
574,1,574,1,-1,-0.44789535423488813,0.7312857128946146,1.2981222744832568,0.576493860387948,0.7983973768102429,1.0623974800109863,1.0
575,1,575,1,-1,2.2483659353837466,0.8631451669010478,1.2981222744832568,0.576493860387948,0.7983973768102429,1.8113887310028076,1.0
576,1,576,1,-1,0.5126393036792578,0.778260231289577,1.2981222744832568,0.576493860387948,0.7983973768102429,1.7843883037567139,1.0
577,1,577,1,1,0.33594692304196205,-0.06465971959028692,1.2981222744832568,0.576493860387948,0.7983973768102429,1.544391393661499,0.0
578,1,578,1,-1,0.9329162836493843,0.7988136892662598,1.2981222744832568,0.576493860387948,0.7983973768102429,1.8583908081054688,1.0
579,1,579,1,1,1.0179077843363613,-0.03130872828604457,1.2981222744832568,0.576493860387948,0.7983973768102429,1.2743947505950928,0.0
580,1,580,1,1,-1.2017967017624152,-0.139862384684091,1.2981222744832568,0.576493860387948,0.7983973768102429,2.5884249210357666,0.0
581,1,581,1,-1,-0.602727064335624,0.7237137372721583,1.2981222744832568,0.576493860387948,0.7983973768102429,1.903393030166626,1.0
582,1,582,1,-1,1.6504879299232205,0.8339062101033441,1.2981222744832568,0.576493860387948,0.7983973768102429,0.9653975367546082,1.0
583,1,583,1,1,0.6660441774977954,-0.04851646080852201,1.2981222744832568,0.576493860387948,0.7983973768102429,3.1384100914001465,1.0
584,1,584,1,1,0.7176689733491853,-0.04599177322710416,1.2981222744832568,0.576493860387948,0.7983973768102429,1.8313896656036377,0.0
585,1,585,-1,1,0.24990307993666083,-1.1245336320511898,1.2981222744832568,0.576493860387948,0.7983973768102429,2.473419666290283,0.0
586,1,586,1,1,-0.6773228173835142,-0.11421322363983008,1.2981222744832568,0.576493860387948,0.7983973768102429,3.3883919715881348,0.0
587,1,587,-1,-1,0.9847776167022022,-0.25431603215392884,1.2981222744832568,0.576493860387948,0.7983973768102429,2.0263986587524414,1.0
588,1,588,-1,-1,-0.37417646460192494,-0.320775074484326,1.2981222744832568,0.576493860387948,0.7983973768102429,5.653228282928467,1.0
589,1,589,-1,-1,1.4775960265095396,-0.23021496795376545,1.2981222744832568,0.576493860387948,0.7983973768102429,3.36039400100708,0.0
590,1,590,-1,-1,-0.9366007413897165,-0.3482801825177135,1.2981222744832568,0.576493860387948,0.7983973768102429,1.453392505645752,1.0
591,1,591,-1,-1,-0.28792273558953746,-0.31655687439467484,1.2981222744832568,0.576493860387948,0.7983973768102429,3.3773927688598633,1.0
592,1,592,-1,-1,-1.0460043417751235,-0.35363051672630874,1.2981222744832568,0.576493860387948,0.7983973768102429,1.2283953428268433,0.0
593,1,593,1,-1,-0.731893613896273,0.7173969048618353,1.2981222744832568,0.576493860387948,0.7983973768102429,2.214407444000244,1.0
594,1,594,1,1,-1.0428167908515988,-0.1320875431539303,1.2981222744832568,0.576493860387948,0.7983973768102429,3.0514163970947266,1.0
595,1,595,-1,-1,0.4850895665096113,-0.27875305304861137,1.2981222744832568,0.576493860387948,0.7983973768102429,1.7183890342712402,1.0
596,1,596,1,-1,-0.9459958553882591,0.7069263303765709,1.2981222744832568,0.576493860387948,0.7983973768102429,3.067415237426758,0.0
597,1,597,1,-1,-0.5270715513370238,0.727413636341652,1.2981222744832568,0.576493860387948,0.7983973768102429,1.0533976554870605,1.0
598,1,598,-1,-1,-1.2722581654078955,-0.36469535890831584,1.2981222744832568,0.576493860387948,0.7983973768102429,2.183406114578247,1.0
599,1,599,-1,-1,0.7313701430372399,-0.2667088114618043,1.2981222744832568,0.576493860387948,0.7983973768102429,1.7703883647918701,1.0
600,1,600,1,-1,0.48364084819944897,0.776842074777328,1.2981222744832568,0.576493860387948,0.7983973768102429,3.7523655891418457,1.0
601,1,601,1,-1,1.3355506426425516,0.8185043427446468,1.2981222744832568,0.576493860387948,0.7983973768102429,1.170396089553833,1.0
602,1,602,1,-1,1.1342431961913941,0.8086594919956924,1.2981222744832568,0.576493860387948,0.7983973768102429,1.0893971920013428,1.0
603,1,603,-1,1,-2.2261107636358135,-1.2456219830885684,1.2981222744832568,0.576493860387948,0.7983973768102429,1.8563907146453857,0.0
604,1,604,1,-1,-2.459080098655587,0.6329296213220169,1.2981222744832568,0.576493860387948,0.7983973768102429,1.4073930978775024,1.0
605,1,605,1,-1,-0.4640493870636056,0.730495707134788,1.2981222744832568,0.576493860387948,0.7983973768102429,1.5843908786773682,1.0
606,1,606,-1,1,1.6309115676491723,-1.0569960288266231,1.2981222744832568,0.576493860387948,0.7983973768102429,1.8443901538848877,0.0
607,1,607,1,-1,-1.5934625598705758,0.67526226040342,1.2981222744832568,0.576493860387948,0.7983973768102429,1.2453951835632324,0.0
608,1,608,-1,1,2.221268452085492,-1.028124889093084,1.2981222744832568,0.576493860387948,0.7983973768102429,1.9803965091705322,0.0
609,1,609,1,-1,0.13089006181527701,0.7595909551354568,1.2981222744832568,0.576493860387948,0.7983973768102429,2.643427610397339,1.0
610,1,610,1,1,-0.1757421086785279,-0.08968364312600904,1.2981222744832568,0.576493860387948,0.7983973768102429,4.427316665649414,1.0
611,1,611,1,-1,-0.22546534161724835,0.7421635533069415,1.2981222744832568,0.576493860387948,0.7983973768102429,1.6253902912139893,1.0
612,1,612,1,1,1.1263830431378061,-0.02600379420794261,1.2981222744832568,0.576493860387948,0.7983973768102429,4.5893049240112305,1.0
613,1,613,1,1,1.4627947873455633,-0.009551728125407652,1.2981222744832568,0.576493860387948,0.7983973768102429,1.2323952913284302,1.0
614,1,614,1,1,-0.11817310812446431,-0.0868682568687563,1.2981222744832568,0.576493860387948,0.7983973768102429,4.959278583526611,1.0
615,1,615,1,-1,-0.4849351487522554,0.7294742982886284,1.2981222744832568,0.576493860387948,0.7983973768102429,2.0433995723724365,1.0
616,1,616,1,1,-1.3101636587043741,-0.14516202230813094,1.2981222744832568,0.576493860387948,0.7983973768102429,1.4663922786712646,0.0
617,1,617,-1,1,0.977933545092548,-1.08892962734841,1.2981222744832568,0.576493860387948,0.7983973768102429,2.426417350769043,0.0
618,1,618,1,-1,-1.130477456848146,0.6979043400611687,1.2981222744832568,0.576493860387948,0.7983973768102429,2.126403331756592,0.0
619,1,619,1,-1,-0.8480806613573967,0.7117148292040231,1.2981222744832568,0.576493860387948,0.7983973768102429,1.240395188331604,1.0
620,1,620,-1,1,-1.497685290143052,-1.2099986606795154,1.2981222744832568,0.576493860387948,0.7983973768102429,2.661428451538086,0.0
621,1,621,-1,1,-0.3574989685789851,-1.1542383579203173,1.2981222744832568,0.576493860387948,0.7983973768102429,1.3933932781219482,0.0
622,1,622,1,-1,1.2145579306064118,0.8125872482073813,1.2981222744832568,0.576493860387948,0.7983973768102429,2.959423065185547,1.0
623,1,623,1,1,-0.5575428326450234,-0.10835543698935665,1.2981222744832568,0.576493860387948,0.7983973768102429,2.127403497695923,1.0
624,1,624,-1,1,-0.558807469853162,-1.1640832602549205,1.2981222744832568,0.576493860387948,0.7983973768102429,2.1044023036956787,0.0
625,1,625,1,1,-1.0727481213688428,-0.13355132150318966,1.2981222744832568,0.576493860387948,0.7983973768102429,3.3283963203430176,0.0
626,1,626,1,-1,3.457935650826102,0.9222986335457826,1.2981222744832568,0.576493860387948,0.7983973768102429,1.3203942775726318,1.0
627,1,627,1,-1,-0.7667204933361959,0.7156937118792496,1.2981222744832568,0.576493860387948,0.7983973768102429,2.5644237995147705,0.0
628,1,628,1,-1,-1.898590978215257,0.6603400913986248,1.2981222744832568,0.576493860387948,0.7983973768102429,1.1583962440490723,1.0
629,1,629,1,-1,0.5101437315131002,0.7781381864475099,1.2981222744832568,0.576493860387948,0.7983973768102429,1.548391342163086,1.0
630,1,630,-1,-1,0.13675624965621924,-0.29578813831626904,1.2981222744832568,0.576493860387948,0.7983973768102429,2.8164334297180176,0.0
631,1,631,1,1,0.22822598074146283,-0.06992776415684722,1.2981222744832568,0.576493860387948,0.7983973768102429,2.829432487487793,0.0
632,1,632,1,-1,2.3845190800017155,0.8698036756218861,1.2981222744832568,0.576493860387948,0.7983973768102429,0.9783975481987,1.0
633,1,633,1,-1,-0.43665080088795,0.7318356227533447,1.2981222744832568,0.576493860387948,0.7983973768102429,1.6653897762298584,1.0
634,1,634,-1,1,0.2500079504468102,-1.1245285034057344,1.2981222744832568,0.576493860387948,0.7983973768102429,7.321107387542725,0.0
635,1,635,1,1,0.04269686282331306,-0.07900098279673748,1.2981222744832568,0.576493860387948,0.7983973768102429,4.602303981781006,0.0
636,1,636,-1,-1,-0.8303014303291468,-0.3430816621919296,1.2981222744832568,0.576493860387948,0.7983973768102429,3.982348918914795,0.0
637,1,637,1,-1,-0.40504248787152175,0.7333814131826544,1.2981222744832568,0.576493860387948,0.7983973768102429,1.8663911819458008,0.0
638,1,638,-1,-1,0.34026694268036123,-0.285835538777806,1.2981222744832568,0.576493860387948,0.7983973768102429,5.820216178894043,1.0
639,1,639,1,-1,1.5468592548922375,0.828838296039671,1.2981222744832568,0.576493860387948,0.7983973768102429,2.3724148273468018,1.0
640,1,640,-1,1,2.2728391391988207,-1.0256028476753318,1.2981222744832568,0.576493860387948,0.7983973768102429,4.022346019744873,0.0
641,1,641,-1,1,-0.28272647261555306,-1.1505816424045037,1.2981222744832568,0.576493860387948,0.7983973768102429,1.3523938655853271,0.0
642,1,642,1,-1,-1.5334687331262964,0.6781962317023871,1.2981222744832568,0.576493860387948,0.7983973768102429,0.9783975481987,1.0
643,1,643,-1,1,-0.910864421965357,-1.1813004482416414,1.2981222744832568,0.576493860387948,0.7983973768102429,4.293326377868652,0.0
644,1,644,-1,1,-1.1747438418318665,-1.1942053534009087,1.2981222744832568,0.576493860387948,0.7983973768102429,2.7884342670440674,0.0
645,1,645,1,-1,0.7044198066405201,0.7876391711226404,1.2981222744832568,0.576493860387948,0.7983973768102429,2.130403518676758,1.0
646,1,646,1,1,0.0051591641667492055,-0.080836747182248,1.2981222744832568,0.576493860387948,0.7983973768102429,1.908393144607544,1.0
647,1,647,-1,1,0.8928142553801883,-1.0930923481908232,1.2981222744832568,0.576493860387948,0.7983973768102429,1.8343896865844727,1.0
648,1,648,-1,1,-0.7880165182980657,-1.175292626386329,1.2981222744832568,0.576493860387948,0.7983973768102429,1.0453976392745972,0.0
649,1,649,-1,1,-1.4314860185097098,-1.2067612148700886,1.2981222744832568,0.576493860387948,0.7983973768102429,1.7563886642456055,0.0
650,1,650,1,1,-0.33538662766971905,-0.09749098701747423,1.2981222744832568,0.576493860387948,0.7983973768102429,3.9113540649414062,1.0
651,1,651,-1,1,-0.11540416205277614,-1.1423988195457357,1.2981222744832568,0.576493860387948,0.7983973768102429,1.640390157699585,0.0
652,1,652,-1,1,1.0563285153357056,-1.0850957563460282,1.2981222744832568,0.576493860387948,0.7983973768102429,1.6083905696868896,1.0
653,1,653,1,1,-0.8373023531490214,-0.12203695137699835,1.2981222744832568,0.576493860387948,0.7983973768102429,1.5293915271759033,0.0
654,1,654,-1,-1,0.38418447482679124,-0.283687771485209,1.2981222744832568,0.576493860387948,0.7983973768102429,1.6143903732299805,1.0
655,1,655,1,1,-0.582003423736903,-0.1095516712706811,1.2981222744832568,0.576493860387948,0.7983973768102429,1.0753973722457886,1.0
656,1,656,1,1,0.7760205957136516,-0.04313811319979413,1.2981222744832568,0.576493860387948,0.7983973768102429,2.8404316902160645,1.0
657,1,657,-1,-1,0.5830066227946009,-0.2739644631484529,1.2981222744832568,0.576493860387948,0.7983973768102429,1.7083892822265625,0.0
658,1,658,1,-1,-1.0429456059117217,0.7021850461326051,1.2981222744832568,0.576493860387948,0.7983973768102429,2.0714008808135986,1.0
659,1,659,1,-1,-1.2158965654265605,0.693726956711034,1.2981222744832568,0.576493860387948,0.7983973768102429,1.147396445274353,1.0
660,1,660,1,1,0.933698177337289,-0.035426961501700216,1.2981222744832568,0.576493860387948,0.7983973768102429,4.511310577392578,0.0
661,1,661,-1,1,-0.17634531665954323,-1.1453791194906666,1.2981222744832568,0.576493860387948,0.7983973768102429,3.110412120819092,0.0
662,1,662,1,1,-0.9349332488522795,-0.126811546721729,1.2981222744832568,0.576493860387948,0.7983973768102429,1.169396162033081,1.0
663,1,663,-1,1,0.25205217461161333,-1.1244285315360658,1.2981222744832568,0.576493860387948,0.7983973768102429,1.5573911666870117,0.0
664,1,664,-1,-1,-1.1432992541298528,-0.3583886809554562,1.2981222744832568,0.576493860387948,0.7983973768102429,1.3453938961029053,1.0
665,1,665,-1,1,-0.6903771503271737,-1.170517616709134,1.2981222744832568,0.576493860387948,0.7983973768102429,2.917426109313965,0.0
666,1,666,1,1,0.9418872100587996,-0.03502648051432086,1.2981222744832568,0.576493860387948,0.7983973768102429,1.5313915014266968,1.0
667,1,667,1,1,-1.322373816365327,-0.14575915461452305,1.2981222744832568,0.576493860387948,0.7983973768102429,2.0243985652923584,0.0
668,1,668,1,1,-0.05818319946211077,-0.08393447718183561,1.2981222744832568,0.576493860387948,0.7983973768102429,3.814361095428467,1.0
669,1,669,-1,-1,0.8949740125879131,-0.2587078372997851,1.2981222744832568,0.576493860387948,0.7983973768102429,1.5243916511535645,1.0
670,1,670,-1,-1,1.5933558453667622,-0.22455378571999313,1.2981222744832568,0.576493860387948,0.7983973768102429,2.462419033050537,0.0
671,1,671,-1,1,0.39055502969918604,-1.1176551112742772,1.2981222744832568,0.576493860387948,0.7983973768102429,3.105412483215332,0.0
672,1,672,-1,1,1.2280939595859013,-1.0766956440189301,1.2981222744832568,0.576493860387948,0.7983973768102429,1.4203929901123047,1.0
673,1,673,-1,1,-0.20052505215518573,-1.1465616186545093,1.2981222744832568,0.576493860387948,0.7983973768102429,1.5183916091918945,0.0
674,1,674,-1,-1,-0.5663596107805906,-0.3301737054040844,1.2981222744832568,0.576493860387948,0.7983973768102429,1.0283976793289185,1.0
675,1,675,1,-1,0.8444424051468741,0.7944869137574877,1.2981222744832568,0.576493860387948,0.7983973768102429,1.199395775794983,1.0
676,1,676,-1,-1,-1.17157620359783,-0.35977155253847787,1.2981222744832568,0.576493860387948,0.7983973768102429,1.6523900032043457,0.0
677,1,677,-1,-1,1.119135296735871,-0.24774532982659006,1.2981222744832568,0.576493860387948,0.7983973768102429,4.508310794830322,0.0
678,1,678,1,1,0.5181673189579535,-0.055748312521976706,1.2981222744832568,0.576493860387948,0.7983973768102429,2.2434089183807373,1.0
679,1,679,-1,-1,0.23379100083147875,-0.2910426971533951,1.2981222744832568,0.576493860387948,0.7983973768102429,1.2343952655792236,1.0
680,1,680,1,1,0.5776187445627535,-0.052840867108456785,1.2981222744832568,0.576493860387948,0.7983973768102429,2.7484323978424072,1.0
681,1,681,1,1,-0.7793618965691379,-0.11920339922872436,1.2981222744832568,0.576493860387948,0.7983973768102429,2.9084267616271973,1.0
682,1,682,-1,1,0.39533522549210925,-1.1174213379342357,1.2981222744832568,0.576493860387948,0.7983973768102429,2.664428472518921,0.0
683,1,683,1,1,1.525993014961567,-0.006461047033146303,1.2981222744832568,0.576493860387948,0.7983973768102429,1.3823933601379395,1.0
684,1,684,-1,-1,-1.1860782179185383,-0.36048076707109183,1.2981222744832568,0.576493860387948,0.7983973768102429,1.7503886222839355,0.0
685,1,685,1,1,-0.3673352564018095,-0.0990534204348466,1.2981222744832568,0.576493860387948,0.7983973768102429,2.694429874420166,1.0
686,1,686,-1,1,0.11360217032796056,-1.1311993671528962,1.2981222744832568,0.576493860387948,0.7983973768102429,1.9713962078094482,0.0
687,1,687,1,1,1.137319730008878,-0.025468940421697422,1.2981222744832568,0.576493860387948,0.7983973768102429,6.317180156707764,1.0
688,1,688,1,1,0.6245879004919539,-0.05054386151785864,1.2981222744832568,0.576493860387948,0.7983973768102429,2.162405014038086,1.0
689,1,689,1,-1,0.004676580927354609,0.7534185412295009,1.2981222744832568,0.576493860387948,0.7983973768102429,3.7723641395568848,1.0
690,1,690,1,1,0.827521329530586,-0.04061949281675546,1.2981222744832568,0.576493860387948,0.7983973768102429,2.459419012069702,0.0
691,1,691,-1,1,0.7726628526005269,-1.0989682988746954,1.2981222744832568,0.576493860387948,0.7983973768102429,1.448392629623413,0.0
692,1,692,1,1,1.0843680585156608,-0.02805851826369181,1.2981222744832568,0.576493860387948,0.7983973768102429,2.128403425216675,0.0
693,1,693,1,-1,-0.692807027633175,0.7193084169038884,1.2981222744832568,0.576493860387948,0.7983973768102429,1.195395827293396,1.0
694,1,694,1,-1,-1.5241174537120064,0.678653551845126,1.2981222744832568,0.576493860387948,0.7983973768102429,2.5254220962524414,1.0
695,1,695,1,-1,-0.9495575874737363,0.7067521454598804,1.2981222744832568,0.576493860387948,0.7983973768102429,3.2654008865356445,1.0
696,1,696,-1,-1,-2.067388432468511,-0.40358084945119704,1.2981222744832568,0.576493860387948,0.7983973768102429,3.2444024085998535,0.0
697,1,697,1,-1,-0.37632975717572525,0.7347855964519684,1.2981222744832568,0.576493860387948,0.7983973768102429,1.634390115737915,1.0
698,1,698,1,1,-0.25708108824778425,-0.09366148958945753,1.2981222744832568,0.576493860387948,0.7983973768102429,1.7623884677886963,0.0
699,1,699,-1,-1,0.20567047835591945,-0.2924179187442252,1.2981222744832568,0.576493860387948,0.7983973768102429,2.709430694580078,0.0
700,1,700,1,1,0.815878027871619,-0.04118890328357292,1.2981222744832568,0.576493860387948,0.7983973768102429,5.321252346038818,1.0
701,1,701,1,-1,-1.6253176528058937,0.6737044013124083,1.2981222744832568,0.576493860387948,0.7983973768102429,5.599232196807861,1.0
702,1,702,-1,1,1.4606595463162744,-1.0653221278819647,1.2981222744832568,0.576493860387948,0.7983973768102429,2.0523998737335205,0.0
703,1,703,-1,-1,-1.1812672355283476,-0.3602454881262627,1.2981222744832568,0.576493860387948,0.7983973768102429,1.5153917074203491,0.0
704,1,704,1,-1,0.570272667101482,0.7810787651841475,1.2981222744832568,0.576493860387948,0.7983973768102429,1.6573898792266846,1.0
705,1,705,1,-1,1.8096683037920134,0.841690855184922,1.2981222744832568,0.576493860387948,0.7983973768102429,5.8722124099731445,1.0
706,1,706,1,-1,-1.4149762626392557,0.6839910530434985,1.2981222744832568,0.576493860387948,0.7983973768102429,1.0683974027633667,0.0
707,1,707,-1,1,-0.03451609900305856,-1.1384430249532604,1.2981222744832568,0.576493860387948,0.7983973768102429,2.6124260425567627,0.0
708,1,708,1,1,1.0238578081274023,-0.031017745030292337,1.2981222744832568,0.576493860387948,0.7983973768102429,1.2493951320648193,0.0
709,1,709,1,1,-0.08040570538004806,-0.08502125890743327,1.2981222744832568,0.576493860387948,0.7983973768102429,1.5793908834457397,1.0
710,1,710,1,1,0.29616739561324995,-0.06660511961052228,1.2981222744832568,0.576493860387948,0.7983973768102429,1.0603975057601929,1.0
711,1,711,1,1,1.536758362323202,-0.005934572529076421,1.2981222744832568,0.576493860387948,0.7983973768102429,3.812361240386963,0.0
712,1,712,-1,1,-1.3437030989791974,-1.2024682304012053,1.2981222744832568,0.576493860387948,0.7983973768102429,1.0613975524902344,0.0
713,1,713,-1,-1,0.11225578002880597,-0.29698632283956083,1.2981222744832568,0.576493860387948,0.7983973768102429,4.2253313064575195,1.0
714,1,714,-1,-1,-0.9960774042597593,-0.35118886214841716,1.2981222744832568,0.576493860387948,0.7983973768102429,1.5033918619155884,1.0
715,1,715,1,1,0.29334031065569705,-0.0667433769375729,1.2981222744832568,0.576493860387948,0.7983973768102429,2.3364131450653076,0.0
716,1,716,1,1,0.6593081305910266,-0.04884588417364917,1.2981222744832568,0.576493860387948,0.7983973768102429,3.3693933486938477,1.0
717,1,717,1,-1,1.1870558264252349,0.8112422700870037,1.2981222744832568,0.576493860387948,0.7983973768102429,3.084414005279541,0.0
718,1,718,-1,1,-0.22521563223514485,-1.1477691004445647,1.2981222744832568,0.576493860387948,0.7983973768102429,1.2963944673538208,0.0
719,1,719,-1,1,-1.2632120312825894,-1.1985318506891445,1.2981222744832568,0.576493860387948,0.7983973768102429,1.1303966045379639,0.0
720,1,720,-1,-1,0.8813103384628381,-0.2593760531796003,1.2981222744832568,0.576493860387948,0.7983973768102429,2.631427049636841,0.0
721,1,721,-1,-1,-0.48509075974858973,-0.32619928854542546,1.2981222744832568,0.576493860387948,0.7983973768102429,4.941279888153076,0.0
722,1,722,1,-1,-0.17013129700738028,0.7448696400420505,1.2981222744832568,0.576493860387948,0.7983973768102429,1.501391887664795,1.0
723,1,723,1,1,1.4431256497077074,-0.010513638515803059,1.2981222744832568,0.576493860387948,0.7983973768102429,2.188406229019165,0.0
724,1,724,-1,1,2.3296251457433366,-1.0228257533903693,1.2981222744832568,0.576493860387948,0.7983973768102429,2.0273988246917725,0.0
725,1,725,1,1,2.502994727897901,0.04131878533219409,1.2981222744832568,0.576493860387948,0.7983973768102429,1.9833967685699463,0.0
726,1,726,1,-1,-0.40483223596633583,0.7333916954581625,1.2981222744832568,0.576493860387948,0.7983973768102429,1.8503904342651367,1.0
727,1,727,-1,1,-0.14254355382943673,-1.1437260593779863,1.2981222744832568,0.576493860387948,0.7983973768102429,1.4193929433822632,0.0
728,1,728,1,-1,0.026517618625290132,0.7544866674221931,1.2981222744832568,0.576493860387948,0.7983973768102429,1.2343952655792236,1.0
729,1,729,-1,-1,-0.07652348650416381,-0.3062184885456869,1.2981222744832568,0.576493860387948,0.7983973768102429,1.3243942260742188,0.0
730,1,730,-1,1,0.34844118630776993,-1.1197146699739795,1.2981222744832568,0.576493860387948,0.7983973768102429,1.5293915271759033,0.0
731,1,731,1,-1,0.2516696725854216,0.7654976280504967,1.2981222744832568,0.576493860387948,0.7983973768102429,1.711389183998108,1.0
732,1,732,-1,-1,-0.4196476914661578,-0.32299882452309486,1.2981222744832568,0.576493860387948,0.7983973768102429,1.7963881492614746,0.0
733,1,733,-1,1,-1.7266057864883584,-1.2211939152993834,1.2981222744832568,0.576493860387948,0.7983973768102429,1.8223891258239746,1.0
734,1,734,1,-1,-0.2447047505439332,0.7412226586072153,1.2981222744832568,0.576493860387948,0.7983973768102429,1.8633911609649658,1.0
735,1,735,1,1,-0.6752055861702045,-0.11410968139306515,1.2981222744832568,0.576493860387948,0.7983973768102429,3.1144118309020996,0.0
736,1,736,1,1,-0.06187798528889128,-0.08411516903231234,1.2981222744832568,0.576493860387948,0.7983973768102429,1.5393913984298706,1.0
737,1,737,1,-1,0.49333229051539884,0.7773160304348291,1.2981222744832568,0.576493860387948,0.7983973768102429,2.13840389251709,1.0
738,1,738,-1,-1,1.439904893941002,-0.23205823595620537,1.2981222744832568,0.576493860387948,0.7983973768102429,1.0843971967697144,0.0
739,1,739,1,1,-0.15618502363578646,-0.0887272126177262,1.2981222744832568,0.576493860387948,0.7983973768102429,1.9663958549499512,1.0
740,1,740,-1,1,-0.2602592395936065,-1.1494828924091989,1.2981222744832568,0.576493860387948,0.7983973768102429,1.5873907804489136,0.0
741,1,741,1,-1,-0.3663695456341021,0.7352726961483976,1.2981222744832568,0.576493860387948,0.7983973768102429,1.4923920631408691,1.0
742,1,742,-1,-1,-0.41059160575528936,-0.322555940696565,1.2981222744832568,0.576493860387948,0.7983973768102429,2.0323989391326904,0.0
743,1,743,-1,-1,0.41185891817754683,-0.28233436519472344,1.2981222744832568,0.576493860387948,0.7983973768102429,2.7584328651428223,1.0
744,1,744,-1,-1,0.40156639499812297,-0.28283771644336275,1.2981222744832568,0.576493860387948,0.7983973768102429,2.2494091987609863,0.0
745,1,745,-1,1,1.8980135149135329,-1.0439335274043982,1.2981222744832568,0.576493860387948,0.7983973768102429,2.67042875289917,0.0
746,1,746,-1,1,-1.2720305600664394,-1.1989631169002701,1.2981222744832568,0.576493860387948,0.7983973768102429,2.430417537689209,0.0
747,1,747,1,1,-0.9727734662209797,-0.1286621056497279,1.2981222744832568,0.576493860387948,0.7983973768102429,1.471392273902893,0.0
748,1,748,-1,-1,-0.6672278473980798,-0.33510662146017445,1.2981222744832568,0.576493860387948,0.7983973768102429,2.18540620803833,1.0
749,1,749,1,-1,-0.43205223079266336,0.7320605137697717,1.2981222744832568,0.576493860387948,0.7983973768102429,5.602231979370117,1.0
750,1,750,1,1,-1.1564339881966283,-0.1376439414397121,1.2981222744832568,0.576493860387948,0.7983973768102429,3.79036283493042,0.0
