,subj_idx,trial_idx,S,X,M,v,a,z,t,rt,response
0,1,0,-1,-1,-0.37595361094558244,-0.3123293051582273,1.1476746519068004,0.5762577785916978,1.1461516803004412,3.095186710357666,0.0
1,1,1,1,1,0.2579478958580226,0.13572763135356633,1.1476746519068004,0.3273379861920214,1.1461516803004412,3.6361536979675293,0.0
2,1,2,-1,1,0.04025574269223353,-0.3123293051582273,1.1476746519068004,0.3273379861920214,1.1461516803004412,1.8921456336975098,1.0
3,1,3,1,1,0.538047782655362,0.13572763135356633,1.1476746519068004,0.3273379861920214,1.1461516803004412,1.8881456851959229,0.0
4,1,4,-1,-1,0.3562273236949478,-0.3123293051582273,1.1476746519068004,0.5762577785916978,1.1461516803004412,2.2591476440429688,0.0
5,1,5,-1,1,-0.024854286574865547,-0.3123293051582273,1.1476746519068004,0.3273379861920214,1.1461516803004412,2.5921630859375,0.0
6,1,6,1,1,0.4406596603912194,0.13572763135356633,1.1476746519068004,0.3273379861920214,1.1461516803004412,3.088186264038086,0.0
7,1,7,1,1,1.9087848506984348,0.13572763135356633,1.1476746519068004,0.3273379861920214,1.1461516803004412,4.588084697723389,0.0
8,1,8,-1,-1,0.9800117020393286,-0.3123293051582273,1.1476746519068004,0.5762577785916978,1.1461516803004412,2.2001447677612305,1.0
9,1,9,-1,1,0.7274304100141851,-0.3123293051582273,1.1476746519068004,0.3273379861920214,1.1461516803004412,1.6371488571166992,0.0
10,1,10,-1,-1,-2.9460318313695835,-0.3123293051582273,1.1476746519068004,0.5762577785916978,1.1461516803004412,1.8741458654403687,1.0
11,1,11,1,1,1.238179159750867,0.13572763135356633,1.1476746519068004,0.3273379861920214,1.1461516803004412,2.351151943206787,1.0
12,1,12,-1,1,2.0706386170778726,-0.3123293051582273,1.1476746519068004,0.3273379861920214,1.1461516803004412,1.3761519193649292,0.0
13,1,13,1,1,1.5051986171561542,0.13572763135356633,1.1476746519068004,0.3273379861920214,1.1461516803004412,1.8891456127166748,1.0
14,1,14,-1,1,1.104439061683838,-0.3123293051582273,1.1476746519068004,0.3273379861920214,1.1461516803004412,4.1841139793396,1.0
15,1,15,1,-1,-0.2895935933870263,0.13572763135356633,1.1476746519068004,0.5762577785916978,1.1461516803004412,1.5391501188278198,1.0
16,1,16,-1,1,1.4535286183177891,-0.3123293051582273,1.1476746519068004,0.3273379861920214,1.1461516803004412,2.4851582050323486,0.0
17,1,17,-1,-1,-2.099888023042562,-0.3123293051582273,1.1476746519068004,0.5762577785916978,1.1461516803004412,1.835146427154541,0.0
18,1,18,1,-1,-2.397157082274415,0.13572763135356633,1.1476746519068004,0.5762577785916978,1.1461516803004412,5.698004245758057,0.0
19,1,19,-1,-1,-2.141227994559072,-0.3123293051582273,1.1476746519068004,0.5762577785916978,1.1461516803004412,1.5401501655578613,1.0
20,1,20,-1,1,0.9895397204086054,-0.3123293051582273,1.1476746519068004,0.3273379861920214,1.1461516803004412,2.0031442642211914,0.0
21,1,21,-1,1,0.07566322205222953,-0.3123293051582273,1.1476746519068004,0.3273379861920214,1.1461516803004412,1.460151195526123,0.0
22,1,22,-1,-1,-1.5432243775237744,-0.3123293051582273,1.1476746519068004,0.5762577785916978,1.1461516803004412,1.8941456079483032,0.0
23,1,23,-1,-1,0.3750383382805611,-0.3123293051582273,1.1476746519068004,0.5762577785916978,1.1461516803004412,1.4681510925292969,0.0
24,1,24,1,-1,-2.531973799549546,0.13572763135356633,1.1476746519068004,0.5762577785916978,1.1461516803004412,2.014143943786621,1.0
25,1,25,-1,-1,-0.8949697721008575,-0.3123293051582273,1.1476746519068004,0.5762577785916978,1.1461516803004412,1.6151491403579712,0.0
26,1,26,1,-1,1.2016968958558967,0.13572763135356633,1.1476746519068004,0.5762577785916978,1.1461516803004412,5.368028163909912,0.0
27,1,27,-1,1,1.0320666999204426,-0.3123293051582273,1.1476746519068004,0.3273379861920214,1.1461516803004412,3.062185287475586,0.0
28,1,28,1,-1,-2.7661001126049576,0.13572763135356633,1.1476746519068004,0.5762577785916978,1.1461516803004412,3.5271615982055664,0.0
29,1,29,-1,-1,-2.3546078786405493,-0.3123293051582273,1.1476746519068004,0.5762577785916978,1.1461516803004412,1.6021493673324585,1.0
30,1,30,1,-1,0.9047708868649822,0.13572763135356633,1.1476746519068004,0.5762577785916978,1.1461516803004412,3.622154712677002,0.0
31,1,31,-1,-1,-2.0290313124160813,-0.3123293051582273,1.1476746519068004,0.5762577785916978,1.1461516803004412,3.431168556213379,0.0
32,1,32,-1,1,-0.3466364740304462,-0.3123293051582273,1.1476746519068004,0.3273379861920214,1.1461516803004412,1.4061518907546997,0.0
33,1,33,-1,1,1.182116131205828,-0.3123293051582273,1.1476746519068004,0.3273379861920214,1.1461516803004412,5.540015697479248,0.0
34,1,34,-1,-1,-0.5738807243641726,-0.3123293051582273,1.1476746519068004,0.5762577785916978,1.1461516803004412,2.308149814605713,0.0
35,1,35,1,1,-0.1372981340383288,0.13572763135356633,1.1476746519068004,0.3273379861920214,1.1461516803004412,1.3461518287658691,0.0
36,1,36,-1,1,4.029825955485503,-0.3123293051582273,1.1476746519068004,0.3273379861920214,1.1461516803004412,1.4091517925262451,0.0
37,1,37,-1,-1,-2.374467780071533,-0.3123293051582273,1.1476746519068004,0.5762577785916978,1.1461516803004412,1.7251477241516113,0.0
38,1,38,1,1,0.09270022015629353,0.13572763135356633,1.1476746519068004,0.3273379861920214,1.1461516803004412,1.5861495733261108,0.0
39,1,39,-1,1,0.14801974921939653,-0.3123293051582273,1.1476746519068004,0.3273379861920214,1.1461516803004412,1.290151834487915,0.0
40,1,40,1,-1,-0.9534110154909272,0.13572763135356633,1.1476746519068004,0.5762577785916978,1.1461516803004412,1.3961520195007324,0.0
41,1,41,-1,1,0.5595711455042971,-0.3123293051582273,1.1476746519068004,0.3273379861920214,1.1461516803004412,1.4531512260437012,0.0
42,1,42,-1,-1,-1.432586193182122,-0.3123293051582273,1.1476746519068004,0.5762577785916978,1.1461516803004412,1.5291502475738525,0.0
43,1,43,-1,-1,-1.43905853807015,-0.3123293051582273,1.1476746519068004,0.5762577785916978,1.1461516803004412,4.622082233428955,0.0
44,1,44,-1,-1,0.4375451706805611,-0.3123293051582273,1.1476746519068004,0.5762577785916978,1.1461516803004412,1.3731518983840942,1.0
45,1,45,1,1,0.4066402628311706,0.13572763135356633,1.1476746519068004,0.3273379861920214,1.1461516803004412,1.3121517896652222,0.0
46,1,46,1,-1,-0.2251713384534212,0.13572763135356633,1.1476746519068004,0.5762577785916978,1.1461516803004412,1.883145809173584,1.0
47,1,47,1,1,-0.36965683219180145,0.13572763135356633,1.1476746519068004,0.3273379861920214,1.1461516803004412,1.5071505308151245,0.0
48,1,48,-1,1,1.1029066292735958,-0.3123293051582273,1.1476746519068004,0.3273379861920214,1.1461516803004412,1.4051518440246582,0.0
49,1,49,1,1,2.9100810602936464,0.13572763135356633,1.1476746519068004,0.3273379861920214,1.1461516803004412,1.8741458654403687,0.0
50,1,50,1,1,0.586026369432139,0.13572763135356633,1.1476746519068004,0.3273379861920214,1.1461516803004412,3.468165874481201,1.0
51,1,51,1,1,1.9558797350734454,0.13572763135356633,1.1476746519068004,0.3273379861920214,1.1461516803004412,1.4111517667770386,0.0
52,1,52,1,1,1.4171194449455942,0.13572763135356633,1.1476746519068004,0.3273379861920214,1.1461516803004412,3.5081629753112793,0.0
53,1,53,1,1,1.6624607930908715,0.13572763135356633,1.1476746519068004,0.3273379861920214,1.1461516803004412,3.492164134979248,1.0
54,1,54,-1,-1,-1.8641467019195035,-0.3123293051582273,1.1476746519068004,0.5762577785916978,1.1461516803004412,1.8411462306976318,0.0
55,1,55,-1,1,2.6928873529878876,-0.3123293051582273,1.1476746519068004,0.3273379861920214,1.1461516803004412,2.1561427116394043,0.0
56,1,56,1,-1,-1.786508666711391,0.13572763135356633,1.1476746519068004,0.5762577785916978,1.1461516803004412,2.1821441650390625,0.0
57,1,57,-1,-1,-1.3653077128929447,-0.3123293051582273,1.1476746519068004,0.5762577785916978,1.1461516803004412,1.695148229598999,0.0
58,1,58,-1,1,0.15741989975454662,-0.3123293051582273,1.1476746519068004,0.3273379861920214,1.1461516803004412,3.4371681213378906,0.0
59,1,59,1,-1,-2.9515551755571794,0.13572763135356633,1.1476746519068004,0.5762577785916978,1.1461516803004412,4.04612398147583,0.0
60,1,60,-1,-1,-2.388789077132232,-0.3123293051582273,1.1476746519068004,0.5762577785916978,1.1461516803004412,1.530150294303894,0.0
61,1,61,1,-1,-0.9539135254359852,0.13572763135356633,1.1476746519068004,0.5762577785916978,1.1461516803004412,3.5471601486206055,0.0
62,1,62,-1,-1,-1.228156794344768,-0.3123293051582273,1.1476746519068004,0.5762577785916978,1.1461516803004412,1.7791471481323242,1.0
63,1,63,1,1,1.6504123056762028,0.13572763135356633,1.1476746519068004,0.3273379861920214,1.1461516803004412,1.9331450462341309,1.0
64,1,64,1,1,-0.14994893040037405,0.13572763135356633,1.1476746519068004,0.3273379861920214,1.1461516803004412,3.077185869216919,1.0
65,1,65,-1,-1,-1.1464884833145836,-0.3123293051582273,1.1476746519068004,0.5762577785916978,1.1461516803004412,2.6971681118011475,0.0
66,1,66,1,1,0.0011564368260937874,0.13572763135356633,1.1476746519068004,0.3273379861920214,1.1461516803004412,1.2671517133712769,0.0
67,1,67,-1,1,0.14369742441418398,-0.3123293051582273,1.1476746519068004,0.3273379861920214,1.1461516803004412,4.6350812911987305,0.0
68,1,68,-1,1,1.7067786624712542,-0.3123293051582273,1.1476746519068004,0.3273379861920214,1.1461516803004412,1.8691458702087402,0.0
69,1,69,1,1,1.7983597072503499,0.13572763135356633,1.1476746519068004,0.3273379861920214,1.1461516803004412,2.2291462421417236,0.0
70,1,70,-1,1,1.3480115053844441,-0.3123293051582273,1.1476746519068004,0.3273379861920214,1.1461516803004412,3.967129707336426,1.0
71,1,71,1,-1,-0.006806635535329009,0.13572763135356633,1.1476746519068004,0.5762577785916978,1.1461516803004412,2.7221693992614746,1.0
72,1,72,-1,-1,0.15094724335221987,-0.3123293051582273,1.1476746519068004,0.5762577785916978,1.1461516803004412,1.699148178100586,1.0
73,1,73,1,1,1.3831062472965032,0.13572763135356633,1.1476746519068004,0.3273379861920214,1.1461516803004412,2.896177291870117,1.0
74,1,74,1,1,0.23672184678760566,0.13572763135356633,1.1476746519068004,0.3273379861920214,1.1461516803004412,1.7071480751037598,0.0
75,1,75,1,1,-0.6717538054681613,0.13572763135356633,1.1476746519068004,0.3273379861920214,1.1461516803004412,1.8271465301513672,1.0
76,1,76,-1,1,-0.9142037383838626,-0.3123293051582273,1.1476746519068004,0.3273379861920214,1.1461516803004412,1.364151954650879,0.0
77,1,77,-1,1,0.6529979649819553,-0.3123293051582273,1.1476746519068004,0.3273379861920214,1.1461516803004412,3.8251399993896484,0.0
78,1,78,1,1,-0.10170786425984679,0.13572763135356633,1.1476746519068004,0.3273379861920214,1.1461516803004412,1.8301464319229126,1.0
79,1,79,1,1,0.457094049586772,0.13572763135356633,1.1476746519068004,0.3273379861920214,1.1461516803004412,3.0171830654144287,0.0
80,1,80,-1,1,1.5554040979937667,-0.3123293051582273,1.1476746519068004,0.3273379861920214,1.1461516803004412,2.308149814605713,0.0
81,1,81,1,-1,0.9347162985056621,0.13572763135356633,1.1476746519068004,0.5762577785916978,1.1461516803004412,4.398098468780518,0.0
82,1,82,-1,1,0.030663224629913,-0.3123293051582273,1.1476746519068004,0.3273379861920214,1.1461516803004412,1.8531460762023926,0.0
83,1,83,1,1,1.965458620679358,0.13572763135356633,1.1476746519068004,0.3273379861920214,1.1461516803004412,1.5281503200531006,0.0
84,1,84,1,1,2.6240431805426208,0.13572763135356633,1.1476746519068004,0.3273379861920214,1.1461516803004412,2.533160448074341,1.0
85,1,85,1,1,1.0637299206463262,0.13572763135356633,1.1476746519068004,0.3273379861920214,1.1461516803004412,1.791146993637085,1.0
86,1,86,-1,1,1.2007297093507667,-0.3123293051582273,1.1476746519068004,0.3273379861920214,1.1461516803004412,2.108142852783203,0.0
87,1,87,-1,1,1.5537238979851862,-0.3123293051582273,1.1476746519068004,0.3273379861920214,1.1461516803004412,2.2511472702026367,0.0
88,1,88,-1,-1,-1.1666739918756637,-0.3123293051582273,1.1476746519068004,0.5762577785916978,1.1461516803004412,1.92714524269104,0.0
89,1,89,-1,1,-1.7800209748140166,-0.3123293051582273,1.1476746519068004,0.3273379861920214,1.1461516803004412,2.7221693992614746,1.0
90,1,90,-1,1,2.8559943993469314,-0.3123293051582273,1.1476746519068004,0.3273379861920214,1.1461516803004412,1.6661485433578491,0.0
91,1,91,1,1,1.2958417398898763,0.13572763135356633,1.1476746519068004,0.3273379861920214,1.1461516803004412,1.3591519594192505,0.0
92,1,92,-1,-1,-1.61451079087408,-0.3123293051582273,1.1476746519068004,0.5762577785916978,1.1461516803004412,3.44716739654541,1.0
93,1,93,1,-1,-0.3998697158256037,0.13572763135356633,1.1476746519068004,0.5762577785916978,1.1461516803004412,2.4991588592529297,1.0
94,1,94,1,1,1.8616625770279054,0.13572763135356633,1.1476746519068004,0.3273379861920214,1.1461516803004412,1.9811444282531738,0.0
95,1,95,1,-1,-1.3846917205985994,0.13572763135356633,1.1476746519068004,0.5762577785916978,1.1461516803004412,2.4101548194885254,1.0
96,1,96,1,-1,-0.9639624783526701,0.13572763135356633,1.1476746519068004,0.5762577785916978,1.1461516803004412,1.651148796081543,1.0
97,1,97,-1,1,0.8637579673103516,-0.3123293051582273,1.1476746519068004,0.3273379861920214,1.1461516803004412,3.596156597137451,0.0
98,1,98,-1,1,1.2619162027488982,-0.3123293051582273,1.1476746519068004,0.3273379861920214,1.1461516803004412,2.0941429138183594,0.0
99,1,99,1,-1,0.06240973886168999,0.13572763135356633,1.1476746519068004,0.5762577785916978,1.1461516803004412,3.198185443878174,1.0
100,1,100,1,-1,-1.1854618047390026,0.13572763135356633,1.1476746519068004,0.5762577785916978,1.1461516803004412,1.3531519174575806,1.0
101,1,101,-1,-1,-1.3611793579961655,-0.3123293051582273,1.1476746519068004,0.5762577785916978,1.1461516803004412,1.6851482391357422,0.0
102,1,102,1,1,0.8454791258110133,0.13572763135356633,1.1476746519068004,0.3273379861920214,1.1461516803004412,2.4311556816101074,0.0
103,1,103,1,-1,-2.53108048437569,0.13572763135356633,1.1476746519068004,0.5762577785916978,1.1461516803004412,1.8701459169387817,0.0
104,1,104,-1,1,2.198430294957999,-0.3123293051582273,1.1476746519068004,0.3273379861920214,1.1461516803004412,1.946144938468933,0.0
105,1,105,1,1,0.14977319083728313,0.13572763135356633,1.1476746519068004,0.3273379861920214,1.1461516803004412,2.2571475505828857,1.0
106,1,106,-1,-1,-0.5861339591328589,-0.3123293051582273,1.1476746519068004,0.5762577785916978,1.1461516803004412,2.106142997741699,0.0
107,1,107,1,-1,-2.025153384823515,0.13572763135356633,1.1476746519068004,0.5762577785916978,1.1461516803004412,1.505150556564331,0.0
108,1,108,-1,-1,-2.256749913108731,-0.3123293051582273,1.1476746519068004,0.5762577785916978,1.1461516803004412,3.6061558723449707,0.0
109,1,109,-1,-1,-0.601983675512448,-0.3123293051582273,1.1476746519068004,0.5762577785916978,1.1461516803004412,4.268107891082764,1.0
110,1,110,-1,1,1.7291446341222692,-0.3123293051582273,1.1476746519068004,0.3273379861920214,1.1461516803004412,1.7241477966308594,0.0
111,1,111,1,-1,-1.3695517153892813,0.13572763135356633,1.1476746519068004,0.5762577785916978,1.1461516803004412,2.6951680183410645,1.0
112,1,112,1,1,2.3106031643199234,0.13572763135356633,1.1476746519068004,0.3273379861920214,1.1461516803004412,2.318150520324707,1.0
113,1,113,-1,-1,-1.621038826596756,-0.3123293051582273,1.1476746519068004,0.5762577785916978,1.1461516803004412,2.58616304397583,0.0
114,1,114,1,-1,-0.9641123132794458,0.13572763135356633,1.1476746519068004,0.5762577785916978,1.1461516803004412,3.279179573059082,1.0
115,1,115,1,-1,-0.1282689425754422,0.13572763135356633,1.1476746519068004,0.5762577785916978,1.1461516803004412,2.525160074234009,1.0
116,1,116,1,-1,-1.5931694638741405,0.13572763135356633,1.1476746519068004,0.5762577785916978,1.1461516803004412,1.5411500930786133,1.0
117,1,117,-1,-1,-1.5857616593298864,-0.3123293051582273,1.1476746519068004,0.5762577785916978,1.1461516803004412,5.70500373840332,1.0
118,1,118,-1,-1,-1.4135016876350757,-0.3123293051582273,1.1476746519068004,0.5762577785916978,1.1461516803004412,3.9931278228759766,0.0
119,1,119,-1,-1,0.6810860410741895,-0.3123293051582273,1.1476746519068004,0.5762577785916978,1.1461516803004412,1.932145118713379,1.0
120,1,120,1,1,-1.171205310780321,0.13572763135356633,1.1476746519068004,0.3273379861920214,1.1461516803004412,1.8521461486816406,1.0
121,1,121,1,1,1.3580031065123306,0.13572763135356633,1.1476746519068004,0.3273379861920214,1.1461516803004412,3.513162612915039,1.0
122,1,122,1,1,-0.18782893622012042,0.13572763135356633,1.1476746519068004,0.3273379861920214,1.1461516803004412,1.9381450414657593,0.0
123,1,123,1,1,2.4282792577856966,0.13572763135356633,1.1476746519068004,0.3273379861920214,1.1461516803004412,3.042184352874756,0.0
124,1,124,1,-1,-0.9812190612261047,0.13572763135356633,1.1476746519068004,0.5762577785916978,1.1461516803004412,1.4931507110595703,1.0
125,1,125,1,1,2.0500326030168,0.13572763135356633,1.1476746519068004,0.3273379861920214,1.1461516803004412,1.7641472816467285,0.0
126,1,126,1,1,1.0078298979458893,0.13572763135356633,1.1476746519068004,0.3273379861920214,1.1461516803004412,1.9631447792053223,1.0
127,1,127,-1,1,1.6835829750391718,-0.3123293051582273,1.1476746519068004,0.3273379861920214,1.1461516803004412,2.5061593055725098,0.0
128,1,128,-1,-1,-0.7192301497612961,-0.3123293051582273,1.1476746519068004,0.5762577785916978,1.1461516803004412,2.6881675720214844,1.0
129,1,129,1,-1,-0.809972880263514,0.13572763135356633,1.1476746519068004,0.5762577785916978,1.1461516803004412,3.3581738471984863,1.0
130,1,130,1,-1,-0.9218389733537424,0.13572763135356633,1.1476746519068004,0.5762577785916978,1.1461516803004412,2.9481797218322754,0.0
131,1,131,1,-1,-0.6982375373126881,0.13572763135356633,1.1476746519068004,0.5762577785916978,1.1461516803004412,2.107142925262451,0.0
132,1,132,-1,-1,-0.0490973990629594,-0.3123293051582273,1.1476746519068004,0.5762577785916978,1.1461516803004412,1.4071518182754517,1.0
133,1,133,-1,-1,-1.5110335299935522,-0.3123293051582273,1.1476746519068004,0.5762577785916978,1.1461516803004412,3.177186965942383,0.0
134,1,134,-1,1,0.44761577787450924,-0.3123293051582273,1.1476746519068004,0.3273379861920214,1.1461516803004412,1.5171504020690918,0.0
135,1,135,1,1,1.4386565397990494,0.13572763135356633,1.1476746519068004,0.3273379861920214,1.1461516803004412,1.4031518697738647,0.0
136,1,136,-1,-1,-1.095320503984445,-0.3123293051582273,1.1476746519068004,0.5762577785916978,1.1461516803004412,2.4691574573516846,1.0
137,1,137,-1,1,0.5600322917434597,-0.3123293051582273,1.1476746519068004,0.3273379861920214,1.1461516803004412,1.5981494188308716,0.0
138,1,138,1,-1,-1.5130865711038226,0.13572763135356633,1.1476746519068004,0.5762577785916978,1.1461516803004412,2.074143409729004,0.0
139,1,139,-1,1,0.939398579915004,-0.3123293051582273,1.1476746519068004,0.3273379861920214,1.1461516803004412,1.946144938468933,0.0
140,1,140,-1,-1,-2.207761456047731,-0.3123293051582273,1.1476746519068004,0.5762577785916978,1.1461516803004412,3.4781651496887207,0.0
141,1,141,-1,1,2.1891206618785426,-0.3123293051582273,1.1476746519068004,0.3273379861920214,1.1461516803004412,6.640935897827148,0.0
142,1,142,-1,1,2.8590963686174256,-0.3123293051582273,1.1476746519068004,0.3273379861920214,1.1461516803004412,1.7201478481292725,0.0
143,1,143,-1,1,0.8817927543608545,-0.3123293051582273,1.1476746519068004,0.3273379861920214,1.1461516803004412,3.809141159057617,0.0
144,1,144,1,-1,-1.9440629083388963,0.13572763135356633,1.1476746519068004,0.5762577785916978,1.1461516803004412,3.169187545776367,0.0
145,1,145,-1,-1,-2.215584612428646,-0.3123293051582273,1.1476746519068004,0.5762577785916978,1.1461516803004412,1.3781518936157227,1.0
146,1,146,1,-1,-1.91790660364663,0.13572763135356633,1.1476746519068004,0.5762577785916978,1.1461516803004412,1.361151933670044,1.0
147,1,147,-1,1,1.2898683820611427,-0.3123293051582273,1.1476746519068004,0.3273379861920214,1.1461516803004412,2.2151455879211426,0.0
148,1,148,1,1,0.6612832585303156,0.13572763135356633,1.1476746519068004,0.3273379861920214,1.1461516803004412,1.288151741027832,0.0
149,1,149,1,-1,-0.5269009198033319,0.13572763135356633,1.1476746519068004,0.5762577785916978,1.1461516803004412,2.6731669902801514,1.0
150,1,150,1,1,0.41543322366328406,0.13572763135356633,1.1476746519068004,0.3273379861920214,1.1461516803004412,1.2661516666412354,0.0
151,1,151,1,1,0.6078529217779477,0.13572763135356633,1.1476746519068004,0.3273379861920214,1.1461516803004412,2.1861443519592285,1.0
152,1,152,1,-1,0.1774579489926038,0.13572763135356633,1.1476746519068004,0.5762577785916978,1.1461516803004412,2.7531707286834717,1.0
153,1,153,-1,1,1.4760436026104764,-0.3123293051582273,1.1476746519068004,0.3273379861920214,1.1461516803004412,1.4701510667800903,0.0
154,1,154,-1,1,1.6946270384088669,-0.3123293051582273,1.1476746519068004,0.3273379861920214,1.1461516803004412,1.560149908065796,0.0
155,1,155,1,-1,-2.179657607472952,0.13572763135356633,1.1476746519068004,0.5762577785916978,1.1461516803004412,1.7651472091674805,1.0
156,1,156,-1,-1,-2.280628987999384,-0.3123293051582273,1.1476746519068004,0.5762577785916978,1.1461516803004412,1.7351477146148682,0.0
157,1,157,-1,1,1.0176963091205768,-0.3123293051582273,1.1476746519068004,0.3273379861920214,1.1461516803004412,1.5911494493484497,0.0
158,1,158,-1,1,0.8329118790450573,-0.3123293051582273,1.1476746519068004,0.3273379861920214,1.1461516803004412,1.6071492433547974,0.0
159,1,159,-1,1,-0.15265310924428666,-0.3123293051582273,1.1476746519068004,0.3273379861920214,1.1461516803004412,4.129117965698242,1.0
160,1,160,1,1,0.5530238623447568,0.13572763135356633,1.1476746519068004,0.3273379861920214,1.1461516803004412,3.093186616897583,0.0
161,1,161,-1,-1,-2.462835279274333,-0.3123293051582273,1.1476746519068004,0.5762577785916978,1.1461516803004412,1.693148136138916,0.0
162,1,162,1,-1,-0.5989699161954272,0.13572763135356633,1.1476746519068004,0.5762577785916978,1.1461516803004412,1.9591448307037354,1.0
163,1,163,-1,1,1.26954425781881,-0.3123293051582273,1.1476746519068004,0.3273379861920214,1.1461516803004412,1.7191479206085205,0.0
164,1,164,-1,1,0.10973389895890628,-0.3123293051582273,1.1476746519068004,0.3273379861920214,1.1461516803004412,3.2441821098327637,0.0
165,1,165,-1,-1,0.7110229148268981,-0.3123293051582273,1.1476746519068004,0.5762577785916978,1.1461516803004412,1.8471462726593018,0.0
166,1,166,1,-1,-0.38186315910660884,0.13572763135356633,1.1476746519068004,0.5762577785916978,1.1461516803004412,1.5171504020690918,0.0
167,1,167,1,-1,-1.5169659256296022,0.13572763135356633,1.1476746519068004,0.5762577785916978,1.1461516803004412,2.1531426906585693,1.0
168,1,168,1,-1,-1.847818347127223,0.13572763135356633,1.1476746519068004,0.5762577785916978,1.1461516803004412,2.2061452865600586,0.0
169,1,169,-1,-1,-0.7300041950238026,-0.3123293051582273,1.1476746519068004,0.5762577785916978,1.1461516803004412,2.4171550273895264,1.0
170,1,170,1,-1,-2.0713058481980045,0.13572763135356633,1.1476746519068004,0.5762577785916978,1.1461516803004412,1.4951506853103638,1.0
171,1,171,-1,-1,-1.7862986824687612,-0.3123293051582273,1.1476746519068004,0.5762577785916978,1.1461516803004412,1.4541512727737427,0.0
172,1,172,1,1,1.9221678356337928,0.13572763135356633,1.1476746519068004,0.3273379861920214,1.1461516803004412,2.2501473426818848,1.0
173,1,173,1,-1,0.2879350755296326,0.13572763135356633,1.1476746519068004,0.5762577785916978,1.1461516803004412,2.0111441612243652,1.0
174,1,174,1,-1,0.5527102908591763,0.13572763135356633,1.1476746519068004,0.5762577785916978,1.1461516803004412,1.392151951789856,1.0
175,1,175,-1,1,0.5553076210886965,-0.3123293051582273,1.1476746519068004,0.3273379861920214,1.1461516803004412,1.417151689529419,0.0
176,1,176,-1,1,2.1902955996149007,-0.3123293051582273,1.1476746519068004,0.3273379861920214,1.1461516803004412,1.6981481313705444,0.0
177,1,177,1,1,0.8420117843629332,0.13572763135356633,1.1476746519068004,0.3273379861920214,1.1461516803004412,1.4301515817642212,0.0
178,1,178,1,1,1.4250478972965228,0.13572763135356633,1.1476746519068004,0.3273379861920214,1.1461516803004412,2.589163064956665,0.0
179,1,179,-1,-1,-1.3351607200962996,-0.3123293051582273,1.1476746519068004,0.5762577785916978,1.1461516803004412,2.7641711235046387,0.0
180,1,180,1,1,0.04429146774682968,0.13572763135356633,1.1476746519068004,0.3273379861920214,1.1461516803004412,1.4441514015197754,0.0
181,1,181,1,-1,-0.9343076757409436,0.13572763135356633,1.1476746519068004,0.5762577785916978,1.1461516803004412,1.486150860786438,1.0
182,1,182,1,1,0.022743716593685015,0.13572763135356633,1.1476746519068004,0.3273379861920214,1.1461516803004412,2.622164726257324,1.0
183,1,183,1,-1,-1.2358992548850727,0.13572763135356633,1.1476746519068004,0.5762577785916978,1.1461516803004412,1.4331514835357666,1.0
184,1,184,1,1,1.3403631612972382,0.13572763135356633,1.1476746519068004,0.3273379861920214,1.1461516803004412,2.2061452865600586,1.0
185,1,185,1,1,3.0895879530126984,0.13572763135356633,1.1476746519068004,0.3273379861920214,1.1461516803004412,1.3501518964767456,0.0
186,1,186,-1,-1,-0.2767174321548238,-0.3123293051582273,1.1476746519068004,0.5762577785916978,1.1461516803004412,1.5811495780944824,1.0
187,1,187,1,1,-0.1489008654489523,0.13572763135356633,1.1476746519068004,0.3273379861920214,1.1461516803004412,2.379153251647949,0.0
188,1,188,-1,1,-0.03602044624673306,-0.3123293051582273,1.1476746519068004,0.3273379861920214,1.1461516803004412,2.7261695861816406,1.0
189,1,189,-1,-1,-1.811170917402037,-0.3123293051582273,1.1476746519068004,0.5762577785916978,1.1461516803004412,1.3681519031524658,0.0
190,1,190,1,-1,-0.05325800136813541,0.13572763135356633,1.1476746519068004,0.5762577785916978,1.1461516803004412,1.3111518621444702,1.0
191,1,191,-1,-1,-0.44606096815648777,-0.3123293051582273,1.1476746519068004,0.5762577785916978,1.1461516803004412,2.3731529712677,0.0
192,1,192,-1,1,2.3303194153355467,-0.3123293051582273,1.1476746519068004,0.3273379861920214,1.1461516803004412,5.327031135559082,0.0
193,1,193,1,-1,-1.2884853337999986,0.13572763135356633,1.1476746519068004,0.5762577785916978,1.1461516803004412,1.6591486930847168,1.0
194,1,194,-1,-1,-2.868170521436681,-0.3123293051582273,1.1476746519068004,0.5762577785916978,1.1461516803004412,2.317150354385376,0.0
195,1,195,-1,1,0.4936048823760102,-0.3123293051582273,1.1476746519068004,0.3273379861920214,1.1461516803004412,2.7041683197021484,0.0
196,1,196,-1,1,0.33005042503400683,-0.3123293051582273,1.1476746519068004,0.3273379861920214,1.1461516803004412,1.4191516637802124,0.0
197,1,197,1,1,1.1697913544136225,0.13572763135356633,1.1476746519068004,0.3273379861920214,1.1461516803004412,1.9031455516815186,0.0
198,1,198,-1,1,0.9559092622272808,-0.3123293051582273,1.1476746519068004,0.3273379861920214,1.1461516803004412,3.681150436401367,0.0
199,1,199,-1,-1,-2.1421981521590183,-0.3123293051582273,1.1476746519068004,0.5762577785916978,1.1461516803004412,1.8681459426879883,0.0
200,1,200,-1,1,1.4014696252438417,-0.3123293051582273,1.1476746519068004,0.3273379861920214,1.1461516803004412,2.323150634765625,0.0
201,1,201,1,-1,-0.35156076794158797,0.13572763135356633,1.1476746519068004,0.5762577785916978,1.1461516803004412,1.3571518659591675,0.0
202,1,202,-1,-1,-1.4418414441244234,-0.3123293051582273,1.1476746519068004,0.5762577785916978,1.1461516803004412,1.5961494445800781,1.0
203,1,203,-1,1,1.008984379222817,-0.3123293051582273,1.1476746519068004,0.3273379861920214,1.1461516803004412,1.5111504793167114,1.0
204,1,204,1,-1,-2.2662989194574426,0.13572763135356633,1.1476746519068004,0.5762577785916978,1.1461516803004412,3.9561305046081543,1.0
205,1,205,-1,1,-0.4043191326122135,-0.3123293051582273,1.1476746519068004,0.3273379861920214,1.1461516803004412,2.2381467819213867,1.0
206,1,206,-1,-1,1.00369109739394,-0.3123293051582273,1.1476746519068004,0.5762577785916978,1.1461516803004412,1.928145170211792,1.0
207,1,207,1,-1,-2.5540934053245077,0.13572763135356633,1.1476746519068004,0.5762577785916978,1.1461516803004412,1.5321502685546875,1.0
208,1,208,-1,1,2.573851828315558,-0.3123293051582273,1.1476746519068004,0.3273379861920214,1.1461516803004412,5.010054111480713,0.0
209,1,209,1,1,0.27293151665758797,0.13572763135356633,1.1476746519068004,0.3273379861920214,1.1461516803004412,1.7271478176116943,0.0
210,1,210,-1,-1,-2.784720301839704,-0.3123293051582273,1.1476746519068004,0.5762577785916978,1.1461516803004412,2.286149024963379,0.0
211,1,211,1,-1,-2.982559933923632,0.13572763135356633,1.1476746519068004,0.5762577785916978,1.1461516803004412,1.4971506595611572,1.0
212,1,212,1,1,0.5796823735703274,0.13572763135356633,1.1476746519068004,0.3273379861920214,1.1461516803004412,1.7651472091674805,1.0
213,1,213,-1,1,-0.3266194877870181,-0.3123293051582273,1.1476746519068004,0.3273379861920214,1.1461516803004412,1.627148985862732,0.0
214,1,214,1,1,0.44092712568802717,0.13572763135356633,1.1476746519068004,0.3273379861920214,1.1461516803004412,4.770071506500244,0.0
215,1,215,1,1,0.7004026484700481,0.13572763135356633,1.1476746519068004,0.3273379861920214,1.1461516803004412,3.6161551475524902,0.0
216,1,216,-1,1,1.0415846778309454,-0.3123293051582273,1.1476746519068004,0.3273379861920214,1.1461516803004412,1.2831517457962036,0.0
217,1,217,1,-1,-0.3860858605382754,0.13572763135356633,1.1476746519068004,0.5762577785916978,1.1461516803004412,2.833174467086792,0.0
218,1,218,1,1,2.7987884286260916,0.13572763135356633,1.1476746519068004,0.3273379861920214,1.1461516803004412,2.016144037246704,1.0
219,1,219,1,-1,-1.2741459118159484,0.13572763135356633,1.1476746519068004,0.5762577785916978,1.1461516803004412,1.4541512727737427,1.0
220,1,220,1,1,1.942713111516286,0.13572763135356633,1.1476746519068004,0.3273379861920214,1.1461516803004412,1.5291502475738525,0.0
221,1,221,-1,-1,-0.7985247968361456,-0.3123293051582273,1.1476746519068004,0.5762577785916978,1.1461516803004412,1.622149109840393,0.0
222,1,222,-1,1,1.8017622633420407,-0.3123293051582273,1.1476746519068004,0.3273379861920214,1.1461516803004412,1.3671519756317139,0.0
223,1,223,-1,-1,0.49843494900907315,-0.3123293051582273,1.1476746519068004,0.5762577785916978,1.1461516803004412,2.824173927307129,1.0
224,1,224,-1,1,2.2879812312930423,-0.3123293051582273,1.1476746519068004,0.3273379861920214,1.1461516803004412,1.3381519317626953,0.0
225,1,225,1,-1,1.2491004583336047,0.13572763135356633,1.1476746519068004,0.5762577785916978,1.1461516803004412,1.854146122932434,1.0
226,1,226,-1,1,2.869150084791078,-0.3123293051582273,1.1476746519068004,0.3273379861920214,1.1461516803004412,2.611164093017578,0.0
227,1,227,1,1,-1.0392496692666624,0.13572763135356633,1.1476746519068004,0.3273379861920214,1.1461516803004412,1.3691519498825073,0.0
228,1,228,-1,1,0.3939844786454567,-0.3123293051582273,1.1476746519068004,0.3273379861920214,1.1461516803004412,1.8091466426849365,0.0
229,1,229,-1,1,0.8954090705027933,-0.3123293051582273,1.1476746519068004,0.3273379861920214,1.1461516803004412,3.4991636276245117,0.0
230,1,230,-1,1,0.5474782047015023,-0.3123293051582273,1.1476746519068004,0.3273379861920214,1.1461516803004412,2.0851430892944336,0.0
231,1,231,1,1,1.9780494058580778,0.13572763135356633,1.1476746519068004,0.3273379861920214,1.1461516803004412,1.7651472091674805,1.0
232,1,232,-1,-1,-0.5621443958362929,-0.3123293051582273,1.1476746519068004,0.5762577785916978,1.1461516803004412,5.776998519897461,0.0
233,1,233,1,-1,-1.0017896208206283,0.13572763135356633,1.1476746519068004,0.5762577785916978,1.1461516803004412,2.611164093017578,1.0
234,1,234,1,1,-0.11482050741109684,0.13572763135356633,1.1476746519068004,0.3273379861920214,1.1461516803004412,8.408807754516602,0.0
235,1,235,1,1,-0.9407575634479264,0.13572763135356633,1.1476746519068004,0.3273379861920214,1.1461516803004412,1.438151478767395,0.0
236,1,236,-1,1,1.4613481999678604,-0.3123293051582273,1.1476746519068004,0.3273379861920214,1.1461516803004412,2.363152503967285,1.0
237,1,237,1,1,-0.6878130553151784,0.13572763135356633,1.1476746519068004,0.3273379861920214,1.1461516803004412,4.687077522277832,0.0
238,1,238,-1,1,1.5900917195515016,-0.3123293051582273,1.1476746519068004,0.3273379861920214,1.1461516803004412,2.6881675720214844,1.0
239,1,239,1,1,1.6744346614156977,0.13572763135356633,1.1476746519068004,0.3273379861920214,1.1461516803004412,1.6131491661071777,0.0
240,1,240,-1,-1,-3.1015869261625255,-0.3123293051582273,1.1476746519068004,0.5762577785916978,1.1461516803004412,2.108142852783203,1.0
241,1,241,-1,1,1.2240254174674907,-0.3123293051582273,1.1476746519068004,0.3273379861920214,1.1461516803004412,1.5061506032943726,0.0
242,1,242,1,1,0.810435538305932,0.13572763135356633,1.1476746519068004,0.3273379861920214,1.1461516803004412,1.2521517276763916,0.0
243,1,243,-1,-1,-1.7172021582053567,-0.3123293051582273,1.1476746519068004,0.5762577785916978,1.1461516803004412,1.6241490840911865,1.0
244,1,244,1,1,3.1499725282418423,0.13572763135356633,1.1476746519068004,0.3273379861920214,1.1461516803004412,2.815173625946045,0.0
245,1,245,-1,1,1.548849878926541,-0.3123293051582273,1.1476746519068004,0.3273379861920214,1.1461516803004412,1.832146406173706,1.0
246,1,246,1,1,0.4302899106278997,0.13572763135356633,1.1476746519068004,0.3273379861920214,1.1461516803004412,3.939131736755371,0.0
247,1,247,-1,-1,0.5790096798715814,-0.3123293051582273,1.1476746519068004,0.5762577785916978,1.1461516803004412,4.674078464508057,0.0
248,1,248,1,1,-0.03353758348349056,0.13572763135356633,1.1476746519068004,0.3273379861920214,1.1461516803004412,4.991055488586426,1.0
249,1,249,1,1,2.3464651545549238,0.13572763135356633,1.1476746519068004,0.3273379861920214,1.1461516803004412,2.9101781845092773,1.0
250,1,250,-1,1,1.1203584439554763,-0.3123293051582273,1.1476746519068004,0.3273379861920214,1.1461516803004412,1.4481513500213623,0.0
251,1,251,-1,1,1.8269484553844095,-0.3123293051582273,1.1476746519068004,0.3273379861920214,1.1461516803004412,1.97314453125,0.0
252,1,252,1,-1,-2.097715416090822,0.13572763135356633,1.1476746519068004,0.5762577785916978,1.1461516803004412,2.356152057647705,1.0
253,1,253,1,-1,-0.26858797604142626,0.13572763135356633,1.1476746519068004,0.5762577785916978,1.1461516803004412,3.2021851539611816,1.0
254,1,254,1,-1,-1.616085506998298,0.13572763135356633,1.1476746519068004,0.5762577785916978,1.1461516803004412,2.9051778316497803,0.0
255,1,255,-1,1,1.7469676596799055,-0.3123293051582273,1.1476746519068004,0.3273379861920214,1.1461516803004412,3.034183979034424,0.0
256,1,256,1,1,1.4512353143897252,0.13572763135356633,1.1476746519068004,0.3273379861920214,1.1461516803004412,2.7491705417633057,0.0
257,1,257,1,-1,-1.0644637382387048,0.13572763135356633,1.1476746519068004,0.5762577785916978,1.1461516803004412,2.1841440200805664,1.0
258,1,258,1,-1,-1.550590755145587,0.13572763135356633,1.1476746519068004,0.5762577785916978,1.1461516803004412,3.659152030944824,0.0
259,1,259,1,-1,-1.0352929264839574,0.13572763135356633,1.1476746519068004,0.5762577785916978,1.1461516803004412,2.311150074005127,1.0
260,1,260,1,-1,0.12068368325806733,0.13572763135356633,1.1476746519068004,0.5762577785916978,1.1461516803004412,2.6881675720214844,1.0
261,1,261,1,1,0.30176753739043083,0.13572763135356633,1.1476746519068004,0.3273379861920214,1.1461516803004412,1.7341476678848267,0.0
262,1,262,1,1,1.941255228354267,0.13572763135356633,1.1476746519068004,0.3273379861920214,1.1461516803004412,2.523159980773926,0.0
263,1,263,1,1,-0.6752142169684165,0.13572763135356633,1.1476746519068004,0.3273379861920214,1.1461516803004412,1.3201518058776855,0.0
264,1,264,-1,-1,-1.757736716623391,-0.3123293051582273,1.1476746519068004,0.5762577785916978,1.1461516803004412,1.5881495475769043,0.0
265,1,265,-1,-1,-0.9669426864295358,-0.3123293051582273,1.1476746519068004,0.5762577785916978,1.1461516803004412,2.2551474571228027,0.0
266,1,266,-1,1,0.6056571740510951,-0.3123293051582273,1.1476746519068004,0.3273379861920214,1.1461516803004412,2.314150333404541,1.0
267,1,267,1,1,1.6876298875860478,0.13572763135356633,1.1476746519068004,0.3273379861920214,1.1461516803004412,1.743147611618042,1.0
268,1,268,-1,1,1.258816655685854,-0.3123293051582273,1.1476746519068004,0.3273379861920214,1.1461516803004412,1.3741519451141357,0.0
269,1,269,1,-1,-0.9637047447169033,0.13572763135356633,1.1476746519068004,0.5762577785916978,1.1461516803004412,2.0521435737609863,1.0
270,1,270,1,-1,-3.2152524306823365,0.13572763135356633,1.1476746519068004,0.5762577785916978,1.1461516803004412,2.057143449783325,0.0
271,1,271,1,1,1.0934499539645746,0.13572763135356633,1.1476746519068004,0.3273379861920214,1.1461516803004412,2.069143295288086,0.0
272,1,272,1,1,2.219689449247439,0.13572763135356633,1.1476746519068004,0.3273379861920214,1.1461516803004412,3.727147102355957,1.0
273,1,273,-1,-1,-1.2945511241779897,-0.3123293051582273,1.1476746519068004,0.5762577785916978,1.1461516803004412,2.0551435947418213,1.0
274,1,274,1,-1,-1.0510263914460192,0.13572763135356633,1.1476746519068004,0.5762577785916978,1.1461516803004412,1.9701446294784546,0.0
275,1,275,1,-1,-1.112461629564618,0.13572763135356633,1.1476746519068004,0.5762577785916978,1.1461516803004412,2.802173137664795,1.0
276,1,276,-1,-1,-1.4558274148511312,-0.3123293051582273,1.1476746519068004,0.5762577785916978,1.1461516803004412,2.0881431102752686,0.0
277,1,277,-1,-1,0.13687071131644002,-0.3123293051582273,1.1476746519068004,0.5762577785916978,1.1461516803004412,1.9621447324752808,0.0
278,1,278,1,1,1.7771092551512055,0.13572763135356633,1.1476746519068004,0.3273379861920214,1.1461516803004412,7.928842544555664,0.0
279,1,279,1,1,1.6069384700128655,0.13572763135356633,1.1476746519068004,0.3273379861920214,1.1461516803004412,3.053184747695923,1.0
280,1,280,1,1,0.796353046225903,0.13572763135356633,1.1476746519068004,0.3273379861920214,1.1461516803004412,5.728002071380615,1.0
281,1,281,1,1,1.1764885605144524,0.13572763135356633,1.1476746519068004,0.3273379861920214,1.1461516803004412,1.7811470031738281,0.0
282,1,282,1,-1,0.09601250197196376,0.13572763135356633,1.1476746519068004,0.5762577785916978,1.1461516803004412,1.3071517944335938,1.0
283,1,283,1,1,0.8013217287113421,0.13572763135356633,1.1476746519068004,0.3273379861920214,1.1461516803004412,1.6331489086151123,1.0
284,1,284,1,-1,0.0529963974004406,0.13572763135356633,1.1476746519068004,0.5762577785916978,1.1461516803004412,1.9931442737579346,1.0
285,1,285,-1,1,0.9522699832612238,-0.3123293051582273,1.1476746519068004,0.3273379861920214,1.1461516803004412,2.341151475906372,0.0
286,1,286,-1,1,2.167132960226992,-0.3123293051582273,1.1476746519068004,0.3273379861920214,1.1461516803004412,2.2191457748413086,0.0
287,1,287,-1,1,2.524599048675194,-0.3123293051582273,1.1476746519068004,0.3273379861920214,1.1461516803004412,1.7011480331420898,0.0
288,1,288,-1,-1,-1.6188183964473124,-0.3123293051582273,1.1476746519068004,0.5762577785916978,1.1461516803004412,4.576085567474365,0.0
289,1,289,1,-1,-0.16946073802940587,0.13572763135356633,1.1476746519068004,0.5762577785916978,1.1461516803004412,2.2471470832824707,1.0
290,1,290,1,1,1.1572998959924128,0.13572763135356633,1.1476746519068004,0.3273379861920214,1.1461516803004412,1.5541499853134155,0.0
291,1,291,1,1,1.4984439347203102,0.13572763135356633,1.1476746519068004,0.3273379861920214,1.1461516803004412,4.173114776611328,1.0
292,1,292,1,-1,-2.0467841274548357,0.13572763135356633,1.1476746519068004,0.5762577785916978,1.1461516803004412,2.0071442127227783,1.0
293,1,293,-1,1,1.1514814140979825,-0.3123293051582273,1.1476746519068004,0.3273379861920214,1.1461516803004412,5.117046356201172,0.0
294,1,294,-1,1,0.24133865073650485,-0.3123293051582273,1.1476746519068004,0.3273379861920214,1.1461516803004412,3.433168411254883,0.0
295,1,295,1,-1,-2.3335085515432965,0.13572763135356633,1.1476746519068004,0.5762577785916978,1.1461516803004412,2.6621665954589844,1.0
296,1,296,1,1,0.42658408284343086,0.13572763135356633,1.1476746519068004,0.3273379861920214,1.1461516803004412,6.070977210998535,0.0
297,1,297,1,1,1.3498233453530242,0.13572763135356633,1.1476746519068004,0.3273379861920214,1.1461516803004412,3.512162685394287,1.0
298,1,298,-1,-1,-1.2451146466287921,-0.3123293051582273,1.1476746519068004,0.5762577785916978,1.1461516803004412,2.334151268005371,0.0
299,1,299,-1,1,2.654795598571649,-0.3123293051582273,1.1476746519068004,0.3273379861920214,1.1461516803004412,1.7201478481292725,1.0
300,1,300,-1,1,3.0050445771946763,-0.3123293051582273,1.1476746519068004,0.3273379861920214,1.1461516803004412,2.266148090362549,1.0
301,1,301,-1,-1,-0.0813312804823294,-0.3123293051582273,1.1476746519068004,0.5762577785916978,1.1461516803004412,3.7771434783935547,0.0
302,1,302,-1,-1,-1.8327590271953724,-0.3123293051582273,1.1476746519068004,0.5762577785916978,1.1461516803004412,2.376152992248535,0.0
303,1,303,-1,1,0.5739185306758133,-0.3123293051582273,1.1476746519068004,0.3273379861920214,1.1461516803004412,2.1011428833007812,0.0
304,1,304,1,-1,-0.5273881409190109,0.13572763135356633,1.1476746519068004,0.5762577785916978,1.1461516803004412,1.64914870262146,1.0
305,1,305,-1,1,-0.5118940945416832,-0.3123293051582273,1.1476746519068004,0.3273379861920214,1.1461516803004412,1.4141517877578735,0.0
306,1,306,1,1,1.8902783546769553,0.13572763135356633,1.1476746519068004,0.3273379861920214,1.1461516803004412,3.3311758041381836,1.0
307,1,307,1,1,1.1945218528082249,0.13572763135356633,1.1476746519068004,0.3273379861920214,1.1461516803004412,2.7761716842651367,1.0
308,1,308,1,1,-0.6226696162939664,0.13572763135356633,1.1476746519068004,0.3273379861920214,1.1461516803004412,1.5911494493484497,0.0
309,1,309,1,1,3.0937270525523437,0.13572763135356633,1.1476746519068004,0.3273379861920214,1.1461516803004412,1.8001468181610107,1.0
310,1,310,1,1,0.5983081097732523,0.13572763135356633,1.1476746519068004,0.3273379861920214,1.1461516803004412,4.412097454071045,0.0
311,1,311,1,-1,-0.6298992033683312,0.13572763135356633,1.1476746519068004,0.5762577785916978,1.1461516803004412,1.9101454019546509,1.0
312,1,312,-1,-1,-3.213228711145731,-0.3123293051582273,1.1476746519068004,0.5762577785916978,1.1461516803004412,1.998144268989563,0.0
313,1,313,-1,-1,-1.048483618065035,-0.3123293051582273,1.1476746519068004,0.5762577785916978,1.1461516803004412,3.3491744995117188,1.0
314,1,314,1,-1,-3.0385860127193927,0.13572763135356633,1.1476746519068004,0.5762577785916978,1.1461516803004412,1.4941507577896118,1.0
315,1,315,1,-1,-1.5563276141319893,0.13572763135356633,1.1476746519068004,0.5762577785916978,1.1461516803004412,3.066185474395752,0.0
316,1,316,-1,1,1.633693055541659,-0.3123293051582273,1.1476746519068004,0.3273379861920214,1.1461516803004412,1.6681485176086426,0.0
317,1,317,-1,-1,-1.2587613526800907,-0.3123293051582273,1.1476746519068004,0.5762577785916978,1.1461516803004412,2.115142822265625,0.0
318,1,318,1,-1,-1.216389119608581,0.13572763135356633,1.1476746519068004,0.5762577785916978,1.1461516803004412,2.350152015686035,1.0
319,1,319,-1,1,-0.12127376441594873,-0.3123293051582273,1.1476746519068004,0.3273379861920214,1.1461516803004412,2.6741671562194824,0.0
320,1,320,1,1,0.5320152730228138,0.13572763135356633,1.1476746519068004,0.3273379861920214,1.1461516803004412,2.9181785583496094,1.0
321,1,321,1,1,0.4529526534296251,0.13572763135356633,1.1476746519068004,0.3273379861920214,1.1461516803004412,1.7671473026275635,0.0
322,1,322,1,-1,-1.5463487470454116,0.13572763135356633,1.1476746519068004,0.5762577785916978,1.1461516803004412,1.832146406173706,0.0
323,1,323,1,1,1.6619113977158106,0.13572763135356633,1.1476746519068004,0.3273379861920214,1.1461516803004412,2.9361791610717773,1.0
324,1,324,1,1,0.7600036850897505,0.13572763135356633,1.1476746519068004,0.3273379861920214,1.1461516803004412,2.580162525177002,1.0
325,1,325,1,-1,-1.448387260785549,0.13572763135356633,1.1476746519068004,0.5762577785916978,1.1461516803004412,2.6451656818389893,1.0
326,1,326,-1,-1,-1.8370159925424714,-0.3123293051582273,1.1476746519068004,0.5762577785916978,1.1461516803004412,1.814146637916565,0.0
327,1,327,1,-1,-1.5880852159819323,0.13572763135356633,1.1476746519068004,0.5762577785916978,1.1461516803004412,5.108047008514404,0.0
328,1,328,-1,-1,-0.5229871478492721,-0.3123293051582273,1.1476746519068004,0.5762577785916978,1.1461516803004412,1.490150809288025,0.0
329,1,329,1,-1,-1.6827027425494898,0.13572763135356633,1.1476746519068004,0.5762577785916978,1.1461516803004412,1.7291476726531982,1.0
330,1,330,1,-1,-0.49149422609733207,0.13572763135356633,1.1476746519068004,0.5762577785916978,1.1461516803004412,1.8821457624435425,1.0
331,1,331,-1,-1,-1.9772906124666372,-0.3123293051582273,1.1476746519068004,0.5762577785916978,1.1461516803004412,1.8431463241577148,1.0
332,1,332,1,-1,-1.0432765805818789,0.13572763135356633,1.1476746519068004,0.5762577785916978,1.1461516803004412,4.369100570678711,0.0
333,1,333,1,1,2.470630179476879,0.13572763135356633,1.1476746519068004,0.3273379861920214,1.1461516803004412,2.574162483215332,1.0
334,1,334,-1,1,0.6235250669369811,-0.3123293051582273,1.1476746519068004,0.3273379861920214,1.1461516803004412,3.7221474647521973,1.0
335,1,335,-1,-1,-1.9790700528192806,-0.3123293051582273,1.1476746519068004,0.5762577785916978,1.1461516803004412,1.553149938583374,1.0
336,1,336,1,-1,-0.7819353632736634,0.13572763135356633,1.1476746519068004,0.5762577785916978,1.1461516803004412,2.0491435527801514,1.0
337,1,337,1,-1,-0.14166943717854574,0.13572763135356633,1.1476746519068004,0.5762577785916978,1.1461516803004412,1.3981519937515259,1.0
338,1,338,1,1,1.1471603807332382,0.13572763135356633,1.1476746519068004,0.3273379861920214,1.1461516803004412,1.2451516389846802,0.0
339,1,339,1,-1,-2.1320786103719938,0.13572763135356633,1.1476746519068004,0.5762577785916978,1.1461516803004412,1.578149676322937,1.0
340,1,340,1,1,3.5065716961477396,0.13572763135356633,1.1476746519068004,0.3273379861920214,1.1461516803004412,2.5001587867736816,0.0
341,1,341,1,1,-0.903842074288236,0.13572763135356633,1.1476746519068004,0.3273379861920214,1.1461516803004412,2.782172203063965,1.0
342,1,342,-1,1,-0.979533682547264,-0.3123293051582273,1.1476746519068004,0.3273379861920214,1.1461516803004412,2.028143882751465,0.0
343,1,343,-1,-1,-1.6130007782846314,-0.3123293051582273,1.1476746519068004,0.5762577785916978,1.1461516803004412,1.9351451396942139,0.0
344,1,344,1,-1,-0.5410582899649061,0.13572763135356633,1.1476746519068004,0.5762577785916978,1.1461516803004412,3.682150363922119,1.0
345,1,345,-1,-1,-1.1030024901056272,-0.3123293051582273,1.1476746519068004,0.5762577785916978,1.1461516803004412,3.961130142211914,1.0
346,1,346,-1,-1,0.08561504365784378,-0.3123293051582273,1.1476746519068004,0.5762577785916978,1.1461516803004412,2.306149959564209,0.0
347,1,347,1,-1,0.6757429525168828,0.13572763135356633,1.1476746519068004,0.5762577785916978,1.1461516803004412,3.0081825256347656,0.0
348,1,348,-1,-1,0.6692150337628546,-0.3123293051582273,1.1476746519068004,0.5762577785916978,1.1461516803004412,1.4721510410308838,0.0
349,1,349,1,1,-0.27541289472290553,0.13572763135356633,1.1476746519068004,0.3273379861920214,1.1461516803004412,1.28715181350708,0.0
350,1,350,-1,-1,-1.8573447987025902,-0.3123293051582273,1.1476746519068004,0.5762577785916978,1.1461516803004412,2.0051441192626953,0.0
351,1,351,1,-1,0.12457828139090799,0.13572763135356633,1.1476746519068004,0.5762577785916978,1.1461516803004412,1.3471518754959106,1.0
352,1,352,-1,1,0.2006137551282008,-0.3123293051582273,1.1476746519068004,0.3273379861920214,1.1461516803004412,1.4921507835388184,0.0
353,1,353,-1,-1,-1.0190537470490282,-0.3123293051582273,1.1476746519068004,0.5762577785916978,1.1461516803004412,2.514159679412842,0.0
354,1,354,1,1,0.8787486395397996,0.13572763135356633,1.1476746519068004,0.3273379861920214,1.1461516803004412,1.6141492128372192,0.0
355,1,355,-1,1,0.8884957277834609,-0.3123293051582273,1.1476746519068004,0.3273379861920214,1.1461516803004412,1.2761517763137817,0.0
356,1,356,-1,1,-0.2181746098409627,-0.3123293051582273,1.1476746519068004,0.3273379861920214,1.1461516803004412,1.810146689414978,0.0
357,1,357,1,-1,-2.168714128500711,0.13572763135356633,1.1476746519068004,0.5762577785916978,1.1461516803004412,2.0941429138183594,0.0
358,1,358,-1,-1,-0.6986797814511005,-0.3123293051582273,1.1476746519068004,0.5762577785916978,1.1461516803004412,3.0311837196350098,1.0
359,1,359,1,1,1.6531684257371264,0.13572763135356633,1.1476746519068004,0.3273379861920214,1.1461516803004412,1.4111517667770386,0.0
360,1,360,1,1,0.31375232205580383,0.13572763135356633,1.1476746519068004,0.3273379861920214,1.1461516803004412,3.723147392272949,0.0
361,1,361,-1,1,1.0243038283624322,-0.3123293051582273,1.1476746519068004,0.3273379861920214,1.1461516803004412,2.6581664085388184,0.0
362,1,362,-1,-1,-0.6785256464922164,-0.3123293051582273,1.1476746519068004,0.5762577785916978,1.1461516803004412,2.565161943435669,1.0
363,1,363,1,1,-0.16606227281126973,0.13572763135356633,1.1476746519068004,0.3273379861920214,1.1461516803004412,1.457151174545288,0.0
364,1,364,1,-1,-0.8421743394132645,0.13572763135356633,1.1476746519068004,0.5762577785916978,1.1461516803004412,1.9621447324752808,1.0
365,1,365,-1,1,0.01958980927355536,-0.3123293051582273,1.1476746519068004,0.3273379861920214,1.1461516803004412,1.7641472816467285,0.0
366,1,366,-1,-1,-2.538449144041561,-0.3123293051582273,1.1476746519068004,0.5762577785916978,1.1461516803004412,2.266148090362549,0.0
367,1,367,1,-1,-2.343190962168892,0.13572763135356633,1.1476746519068004,0.5762577785916978,1.1461516803004412,1.8951456546783447,1.0
368,1,368,1,-1,-1.7554206048989072,0.13572763135356633,1.1476746519068004,0.5762577785916978,1.1461516803004412,2.0901432037353516,1.0
369,1,369,-1,-1,-1.3537950941724275,-0.3123293051582273,1.1476746519068004,0.5762577785916978,1.1461516803004412,1.9851443767547607,0.0
370,1,370,1,1,0.2418141478717657,0.13572763135356633,1.1476746519068004,0.3273379861920214,1.1461516803004412,3.7561450004577637,1.0
371,1,371,-1,-1,0.4729084490352087,-0.3123293051582273,1.1476746519068004,0.5762577785916978,1.1461516803004412,2.824173927307129,0.0
372,1,372,-1,-1,-1.305166374954064,-0.3123293051582273,1.1476746519068004,0.5762577785916978,1.1461516803004412,3.984128475189209,0.0
373,1,373,1,1,1.8289669772588129,0.13572763135356633,1.1476746519068004,0.3273379861920214,1.1461516803004412,2.119142770767212,0.0
374,1,374,-1,-1,-0.8711961922123793,-0.3123293051582273,1.1476746519068004,0.5762577785916978,1.1461516803004412,2.344151496887207,0.0
375,1,375,1,-1,-1.5461038779323018,0.13572763135356633,1.1476746519068004,0.5762577785916978,1.1461516803004412,2.1271426677703857,0.0
376,1,376,1,1,1.0743775107063902,0.13572763135356633,1.1476746519068004,0.3273379861920214,1.1461516803004412,1.3481519222259521,0.0
377,1,377,1,-1,-1.1254752040546094,0.13572763135356633,1.1476746519068004,0.5762577785916978,1.1461516803004412,1.8411462306976318,0.0
378,1,378,-1,1,2.0808048280606175,-0.3123293051582273,1.1476746519068004,0.3273379861920214,1.1461516803004412,3.5901570320129395,0.0
379,1,379,1,-1,-0.10695837527762986,0.13572763135356633,1.1476746519068004,0.5762577785916978,1.1461516803004412,1.6021493673324585,1.0
380,1,380,-1,1,2.3222182225918533,-0.3123293051582273,1.1476746519068004,0.3273379861920214,1.1461516803004412,2.4431562423706055,1.0
381,1,381,-1,1,2.4765916028275314,-0.3123293051582273,1.1476746519068004,0.3273379861920214,1.1461516803004412,1.3701519966125488,0.0
382,1,382,1,1,0.24477028485151875,0.13572763135356633,1.1476746519068004,0.3273379861920214,1.1461516803004412,1.6671485900878906,0.0
383,1,383,-1,-1,-0.7997434281326207,-0.3123293051582273,1.1476746519068004,0.5762577785916978,1.1461516803004412,3.939131736755371,1.0
384,1,384,1,-1,-0.18074177147135673,0.13572763135356633,1.1476746519068004,0.5762577785916978,1.1461516803004412,2.0951430797576904,1.0
385,1,385,-1,1,-0.1546019248425332,-0.3123293051582273,1.1476746519068004,0.3273379861920214,1.1461516803004412,2.7731716632843018,0.0
386,1,386,-1,-1,-2.300638842840999,-0.3123293051582273,1.1476746519068004,0.5762577785916978,1.1461516803004412,1.6061493158340454,1.0
387,1,387,1,1,1.6138152288193321,0.13572763135356633,1.1476746519068004,0.3273379861920214,1.1461516803004412,2.7641711235046387,1.0
388,1,388,-1,1,0.7280581687913439,-0.3123293051582273,1.1476746519068004,0.3273379861920214,1.1461516803004412,2.6891677379608154,0.0
389,1,389,-1,-1,-2.129716988297295,-0.3123293051582273,1.1476746519068004,0.5762577785916978,1.1461516803004412,2.1341423988342285,1.0
390,1,390,-1,-1,-1.6978897574020595,-0.3123293051582273,1.1476746519068004,0.5762577785916978,1.1461516803004412,2.376152992248535,0.0
391,1,391,1,1,1.6113166910256216,0.13572763135356633,1.1476746519068004,0.3273379861920214,1.1461516803004412,1.9931442737579346,1.0
392,1,392,1,1,2.86731609799892,0.13572763135356633,1.1476746519068004,0.3273379861920214,1.1461516803004412,1.6401488780975342,0.0
393,1,393,-1,-1,-0.21205600818277415,-0.3123293051582273,1.1476746519068004,0.5762577785916978,1.1461516803004412,1.604149341583252,1.0
394,1,394,1,1,0.8097022318560246,0.13572763135356633,1.1476746519068004,0.3273379861920214,1.1461516803004412,2.029143810272217,1.0
395,1,395,1,-1,-1.5734284705278576,0.13572763135356633,1.1476746519068004,0.5762577785916978,1.1461516803004412,1.700148105621338,1.0
396,1,396,-1,-1,-0.9983823263027753,-0.3123293051582273,1.1476746519068004,0.5762577785916978,1.1461516803004412,2.60616397857666,1.0
397,1,397,1,1,0.09496573018148713,0.13572763135356633,1.1476746519068004,0.3273379861920214,1.1461516803004412,2.1781439781188965,0.0
398,1,398,-1,1,1.5016902008971074,-0.3123293051582273,1.1476746519068004,0.3273379861920214,1.1461516803004412,3.302177906036377,0.0
399,1,399,1,-1,-0.5579294281360634,0.13572763135356633,1.1476746519068004,0.5762577785916978,1.1461516803004412,1.696148157119751,0.0
400,1,400,1,-1,-0.2982652268831646,0.13572763135356633,1.1476746519068004,0.5762577785916978,1.1461516803004412,2.4021544456481934,0.0
401,1,401,-1,1,1.08537015715793,-0.3123293051582273,1.1476746519068004,0.3273379861920214,1.1461516803004412,2.7481703758239746,0.0
402,1,402,-1,1,-0.6710424994763047,-0.3123293051582273,1.1476746519068004,0.3273379861920214,1.1461516803004412,1.6561486721038818,0.0
403,1,403,1,1,-1.1318046403328363,0.13572763135356633,1.1476746519068004,0.3273379861920214,1.1461516803004412,1.2051515579223633,0.0
404,1,404,1,1,0.7992636779452893,0.13572763135356633,1.1476746519068004,0.3273379861920214,1.1461516803004412,1.260151743888855,0.0
405,1,405,1,-1,-1.1333991190660797,0.13572763135356633,1.1476746519068004,0.5762577785916978,1.1461516803004412,2.065143346786499,1.0
406,1,406,1,1,1.465146813045614,0.13572763135356633,1.1476746519068004,0.3273379861920214,1.1461516803004412,1.290151834487915,0.0
407,1,407,-1,1,2.427166196938132,-0.3123293051582273,1.1476746519068004,0.3273379861920214,1.1461516803004412,4.441095352172852,1.0
408,1,408,-1,-1,-1.4581828846180263,-0.3123293051582273,1.1476746519068004,0.5762577785916978,1.1461516803004412,3.113187551498413,0.0
409,1,409,1,1,2.153079348757216,0.13572763135356633,1.1476746519068004,0.3273379861920214,1.1461516803004412,1.946144938468933,0.0
410,1,410,-1,1,-0.23378704979807607,-0.3123293051582273,1.1476746519068004,0.3273379861920214,1.1461516803004412,3.4131698608398438,0.0
411,1,411,-1,-1,-1.2319318421945649,-0.3123293051582273,1.1476746519068004,0.5762577785916978,1.1461516803004412,1.7951469421386719,0.0
412,1,412,-1,-1,-0.9470594181345205,-0.3123293051582273,1.1476746519068004,0.5762577785916978,1.1461516803004412,2.348151683807373,1.0
413,1,413,-1,-1,-0.6586286852214088,-0.3123293051582273,1.1476746519068004,0.5762577785916978,1.1461516803004412,1.971144676208496,0.0
414,1,414,1,1,1.4867089721098385,0.13572763135356633,1.1476746519068004,0.3273379861920214,1.1461516803004412,4.160115718841553,1.0
415,1,415,1,-1,-1.224333778412312,0.13572763135356633,1.1476746519068004,0.5762577785916978,1.1461516803004412,1.6591486930847168,1.0
416,1,416,1,1,-0.9086544477053302,0.13572763135356633,1.1476746519068004,0.3273379861920214,1.1461516803004412,1.6631486415863037,0.0
417,1,417,-1,-1,-1.3527082932073993,-0.3123293051582273,1.1476746519068004,0.5762577785916978,1.1461516803004412,2.339151382446289,0.0
418,1,418,-1,-1,-0.5802491331949293,-0.3123293051582273,1.1476746519068004,0.5762577785916978,1.1461516803004412,2.1591429710388184,0.0
419,1,419,1,-1,-1.9729089144858878,0.13572763135356633,1.1476746519068004,0.5762577785916978,1.1461516803004412,2.6841673851013184,0.0
420,1,420,1,1,0.6888443572470994,0.13572763135356633,1.1476746519068004,0.3273379861920214,1.1461516803004412,3.7351465225219727,0.0
421,1,421,1,1,2.27794488255166,0.13572763135356633,1.1476746519068004,0.3273379861920214,1.1461516803004412,2.0521435737609863,1.0
422,1,422,1,1,2.137777549533106,0.13572763135356633,1.1476746519068004,0.3273379861920214,1.1461516803004412,2.7691714763641357,1.0
423,1,423,1,1,3.155138502810719,0.13572763135356633,1.1476746519068004,0.3273379861920214,1.1461516803004412,2.332150936126709,0.0
424,1,424,-1,-1,0.028213115208635564,-0.3123293051582273,1.1476746519068004,0.5762577785916978,1.1461516803004412,1.5101505517959595,1.0
425,1,425,-1,-1,-0.5224530693652285,-0.3123293051582273,1.1476746519068004,0.5762577785916978,1.1461516803004412,1.932145118713379,0.0
426,1,426,1,1,-0.09824326004025541,0.13572763135356633,1.1476746519068004,0.3273379861920214,1.1461516803004412,2.610164165496826,1.0
427,1,427,1,-1,0.6868524803724116,0.13572763135356633,1.1476746519068004,0.5762577785916978,1.1461516803004412,2.3741531372070312,1.0
428,1,428,-1,1,2.875723327055228,-0.3123293051582273,1.1476746519068004,0.3273379861920214,1.1461516803004412,1.5061506032943726,0.0
429,1,429,1,1,1.641851678233122,0.13572763135356633,1.1476746519068004,0.3273379861920214,1.1461516803004412,1.6501487493515015,0.0
430,1,430,1,-1,-0.44034473065184176,0.13572763135356633,1.1476746519068004,0.5762577785916978,1.1461516803004412,1.3941519260406494,1.0
431,1,431,-1,-1,-1.782213242667233,-0.3123293051582273,1.1476746519068004,0.5762577785916978,1.1461516803004412,1.741147518157959,1.0
432,1,432,-1,1,0.6334092322717246,-0.3123293051582273,1.1476746519068004,0.3273379861920214,1.1461516803004412,2.1291425228118896,0.0
433,1,433,1,-1,-1.3132145899253818,0.13572763135356633,1.1476746519068004,0.5762577785916978,1.1461516803004412,2.306149959564209,0.0
434,1,434,1,1,3.398915096445013,0.13572763135356633,1.1476746519068004,0.3273379861920214,1.1461516803004412,2.837174654006958,1.0
435,1,435,1,1,1.2180969883079327,0.13572763135356633,1.1476746519068004,0.3273379861920214,1.1461516803004412,2.024143934249878,0.0
436,1,436,1,1,0.7239538662599474,0.13572763135356633,1.1476746519068004,0.3273379861920214,1.1461516803004412,1.325151801109314,0.0
437,1,437,1,-1,0.1743036034601575,0.13572763135356633,1.1476746519068004,0.5762577785916978,1.1461516803004412,1.877145767211914,1.0
438,1,438,-1,-1,-1.6623096648552753,-0.3123293051582273,1.1476746519068004,0.5762577785916978,1.1461516803004412,2.1481423377990723,0.0
439,1,439,1,-1,0.34476606341642824,0.13572763135356633,1.1476746519068004,0.5762577785916978,1.1461516803004412,1.439151406288147,1.0
440,1,440,-1,-1,-2.054505490659615,-0.3123293051582273,1.1476746519068004,0.5762577785916978,1.1461516803004412,1.3011517524719238,1.0
441,1,441,1,-1,-1.272524859443578,0.13572763135356633,1.1476746519068004,0.5762577785916978,1.1461516803004412,2.4751577377319336,0.0
442,1,442,-1,1,1.7915830763152418,-0.3123293051582273,1.1476746519068004,0.3273379861920214,1.1461516803004412,1.946144938468933,0.0
443,1,443,1,-1,-1.9418084765295303,0.13572763135356633,1.1476746519068004,0.5762577785916978,1.1461516803004412,1.9741445779800415,1.0
444,1,444,-1,1,1.6093717868181447,-0.3123293051582273,1.1476746519068004,0.3273379861920214,1.1461516803004412,1.4751509428024292,1.0
445,1,445,1,-1,-0.44140395219743467,0.13572763135356633,1.1476746519068004,0.5762577785916978,1.1461516803004412,6.6599345207214355,0.0
446,1,446,1,1,2.295201721691801,0.13572763135356633,1.1476746519068004,0.3273379861920214,1.1461516803004412,1.3941519260406494,0.0
447,1,447,-1,1,0.8622749993820022,-0.3123293051582273,1.1476746519068004,0.3273379861920214,1.1461516803004412,1.5281503200531006,0.0
448,1,448,1,1,-0.2302267128205706,0.13572763135356633,1.1476746519068004,0.3273379861920214,1.1461516803004412,1.285151720046997,0.0
449,1,449,-1,-1,-3.174791137335352,-0.3123293051582273,1.1476746519068004,0.5762577785916978,1.1461516803004412,1.358151912689209,1.0
450,1,450,1,-1,-0.7753349238913173,0.13572763135356633,1.1476746519068004,0.5762577785916978,1.1461516803004412,3.022183418273926,0.0
451,1,451,1,1,1.8599950847946172,0.13572763135356633,1.1476746519068004,0.3273379861920214,1.1461516803004412,2.6841673851013184,0.0
452,1,452,-1,-1,-1.008919189570991,-0.3123293051582273,1.1476746519068004,0.5762577785916978,1.1461516803004412,3.280179500579834,0.0
453,1,453,1,-1,-1.8299226514546967,0.13572763135356633,1.1476746519068004,0.5762577785916978,1.1461516803004412,5.038052082061768,0.0
454,1,454,-1,-1,-0.07135620403261633,-0.3123293051582273,1.1476746519068004,0.5762577785916978,1.1461516803004412,3.0331838130950928,0.0
455,1,455,-1,-1,1.662376885413961,-0.3123293051582273,1.1476746519068004,0.5762577785916978,1.1461516803004412,3.041184186935425,0.0
456,1,456,1,-1,-1.246149479640511,0.13572763135356633,1.1476746519068004,0.5762577785916978,1.1461516803004412,1.8411462306976318,0.0
457,1,457,1,-1,-1.6934207337348481,0.13572763135356633,1.1476746519068004,0.5762577785916978,1.1461516803004412,2.0061440467834473,1.0
458,1,458,1,-1,-1.6220157557840191,0.13572763135356633,1.1476746519068004,0.5762577785916978,1.1461516803004412,2.4381561279296875,1.0
459,1,459,1,1,1.2805910222790415,0.13572763135356633,1.1476746519068004,0.3273379861920214,1.1461516803004412,1.977144479751587,1.0
460,1,460,-1,1,1.5864038073481557,-0.3123293051582273,1.1476746519068004,0.3273379861920214,1.1461516803004412,5.540015697479248,0.0
461,1,461,1,1,2.575428370559314,0.13572763135356633,1.1476746519068004,0.3273379861920214,1.1461516803004412,2.7201690673828125,1.0
462,1,462,-1,-1,-1.1562323189990813,-0.3123293051582273,1.1476746519068004,0.5762577785916978,1.1461516803004412,5.2950334548950195,0.0
463,1,463,1,-1,-0.8360821912260731,0.13572763135356633,1.1476746519068004,0.5762577785916978,1.1461516803004412,2.0581436157226562,0.0
464,1,464,1,1,0.5756142155160959,0.13572763135356633,1.1476746519068004,0.3273379861920214,1.1461516803004412,1.6861482858657837,0.0
465,1,465,1,1,1.597489024146288,0.13572763135356633,1.1476746519068004,0.3273379861920214,1.1461516803004412,1.3681519031524658,0.0
466,1,466,-1,1,-0.20717663766948213,-0.3123293051582273,1.1476746519068004,0.3273379861920214,1.1461516803004412,2.2561473846435547,1.0
467,1,467,1,1,1.8514922956095954,0.13572763135356633,1.1476746519068004,0.3273379861920214,1.1461516803004412,1.8901456594467163,1.0
468,1,468,1,1,1.604871318296977,0.13572763135356633,1.1476746519068004,0.3273379861920214,1.1461516803004412,3.110187530517578,1.0
469,1,469,-1,-1,-1.5611914183172595,-0.3123293051582273,1.1476746519068004,0.5762577785916978,1.1461516803004412,1.395151972770691,1.0
470,1,470,1,1,0.7288520754704313,0.13572763135356633,1.1476746519068004,0.3273379861920214,1.1461516803004412,2.9261789321899414,0.0
471,1,471,-1,1,1.7787145896881693,-0.3123293051582273,1.1476746519068004,0.3273379861920214,1.1461516803004412,1.512150526046753,0.0
472,1,472,1,-1,-1.852528992675823,0.13572763135356633,1.1476746519068004,0.5762577785916978,1.1461516803004412,1.361151933670044,1.0
473,1,473,1,1,0.7325594909052386,0.13572763135356633,1.1476746519068004,0.3273379861920214,1.1461516803004412,1.4051518440246582,0.0
474,1,474,-1,1,-0.1736647550491892,-0.3123293051582273,1.1476746519068004,0.3273379861920214,1.1461516803004412,2.1381425857543945,0.0
475,1,475,-1,-1,-2.86880294514875,-0.3123293051582273,1.1476746519068004,0.5762577785916978,1.1461516803004412,1.4551512002944946,1.0
476,1,476,1,1,-0.18979466235624143,0.13572763135356633,1.1476746519068004,0.3273379861920214,1.1461516803004412,4.227110862731934,0.0
477,1,477,-1,-1,0.016032091515189695,-0.3123293051582273,1.1476746519068004,0.5762577785916978,1.1461516803004412,3.3761725425720215,1.0
478,1,478,1,-1,-0.7373118810566242,0.13572763135356633,1.1476746519068004,0.5762577785916978,1.1461516803004412,3.141188859939575,1.0
479,1,479,1,-1,-2.611439844884485,0.13572763135356633,1.1476746519068004,0.5762577785916978,1.1461516803004412,2.6461658477783203,0.0
480,1,480,-1,1,1.370705694892188,-0.3123293051582273,1.1476746519068004,0.3273379861920214,1.1461516803004412,1.877145767211914,0.0
481,1,481,-1,-1,0.12759960324829578,-0.3123293051582273,1.1476746519068004,0.5762577785916978,1.1461516803004412,1.6541486978530884,0.0
482,1,482,-1,-1,-1.4764954651269169,-0.3123293051582273,1.1476746519068004,0.5762577785916978,1.1461516803004412,1.644148826599121,1.0
483,1,483,-1,1,2.5828847288004226,-0.3123293051582273,1.1476746519068004,0.3273379861920214,1.1461516803004412,2.0521435737609863,0.0
484,1,484,-1,-1,-1.0305502117571255,-0.3123293051582273,1.1476746519068004,0.5762577785916978,1.1461516803004412,1.8721458911895752,0.0
485,1,485,-1,-1,-0.09058845242957658,-0.3123293051582273,1.1476746519068004,0.5762577785916978,1.1461516803004412,3.8911352157592773,0.0
486,1,486,-1,-1,0.13074831717874824,-0.3123293051582273,1.1476746519068004,0.5762577785916978,1.1461516803004412,2.9741811752319336,0.0
487,1,487,1,-1,-1.349993918600112,0.13572763135356633,1.1476746519068004,0.5762577785916978,1.1461516803004412,2.31315016746521,0.0
488,1,488,-1,-1,-0.9819001475373337,-0.3123293051582273,1.1476746519068004,0.5762577785916978,1.1461516803004412,1.5841495990753174,0.0
489,1,489,1,1,1.7239597292362334,0.13572763135356633,1.1476746519068004,0.3273379861920214,1.1461516803004412,1.5611498355865479,1.0
490,1,490,-1,1,1.4182088496218916,-0.3123293051582273,1.1476746519068004,0.3273379861920214,1.1461516803004412,1.2071516513824463,0.0
491,1,491,-1,1,1.998057969104768,-0.3123293051582273,1.1476746519068004,0.3273379861920214,1.1461516803004412,1.3331518173217773,0.0
492,1,492,-1,1,0.724265831338032,-0.3123293051582273,1.1476746519068004,0.3273379861920214,1.1461516803004412,3.1821866035461426,0.0
493,1,493,1,-1,-1.1542898689848728,0.13572763135356633,1.1476746519068004,0.5762577785916978,1.1461516803004412,2.766171455383301,0.0
494,1,494,-1,-1,-0.595874005410842,-0.3123293051582273,1.1476746519068004,0.5762577785916978,1.1461516803004412,3.082186222076416,0.0
495,1,495,-1,-1,-1.4314971399214365,-0.3123293051582273,1.1476746519068004,0.5762577785916978,1.1461516803004412,2.4821581840515137,0.0
496,1,496,-1,1,0.9658506498579527,-0.3123293051582273,1.1476746519068004,0.3273379861920214,1.1461516803004412,2.4401559829711914,0.0
497,1,497,-1,-1,-2.643278479317227,-0.3123293051582273,1.1476746519068004,0.5762577785916978,1.1461516803004412,3.8721365928649902,1.0
498,1,498,1,1,0.4287571499634889,0.13572763135356633,1.1476746519068004,0.3273379861920214,1.1461516803004412,4.1441168785095215,0.0
499,1,499,-1,1,0.3048321843684987,-0.3123293051582273,1.1476746519068004,0.3273379861920214,1.1461516803004412,2.1451423168182373,0.0
500,2,0,-1,1,1.5944295665273962,0.8736720562856509,1.2507801555156801,0.2999967026268533,1.149933948937706,2.1409246921539307,1.0
501,2,1,-1,-1,-1.0352227282950772,0.8736720562856509,1.2507801555156801,0.5985223986582576,1.149933948937706,1.449933648109436,1.0
502,2,2,-1,1,1.007530569891185,0.8736720562856509,1.2507801555156801,0.2999967026268533,1.149933948937706,1.7639296054840088,1.0
503,2,3,-1,1,1.796181748093156,0.8736720562856509,1.2507801555156801,0.2999967026268533,1.149933948937706,2.4399380683898926,0.0
504,2,4,-1,-1,-2.042367945460059,0.8736720562856509,1.2507801555156801,0.5985223986582576,1.149933948937706,1.8609282970428467,1.0
505,2,5,-1,1,-0.5314213042630349,0.8736720562856509,1.2507801555156801,0.2999967026268533,1.149933948937706,2.3509340286254883,1.0
506,2,6,-1,1,2.257065239002057,0.8736720562856509,1.2507801555156801,0.2999967026268533,1.149933948937706,1.9629271030426025,1.0
507,2,7,1,-1,-0.4826894266573002,1.606842419295496,1.2507801555156801,0.5985223986582576,1.149933948937706,1.3229341506958008,1.0
508,2,8,-1,1,0.05692894669544735,0.8736720562856509,1.2507801555156801,0.2999967026268533,1.149933948937706,1.4629334211349487,1.0
509,2,9,1,-1,-0.1017779719747568,1.606842419295496,1.2507801555156801,0.5985223986582576,1.149933948937706,3.2139668464660645,1.0
510,2,10,-1,1,2.3728758790033666,0.8736720562856509,1.2507801555156801,0.2999967026268533,1.149933948937706,3.031965732574463,1.0
511,2,11,1,-1,-0.3263460199710889,1.606842419295496,1.2507801555156801,0.5985223986582576,1.149933948937706,2.025926113128662,1.0
512,2,12,-1,-1,-1.2843196836636717,0.8736720562856509,1.2507801555156801,0.5985223986582576,1.149933948937706,1.917927622795105,1.0
513,2,13,-1,-1,-0.6843673102724224,0.8736720562856509,1.2507801555156801,0.5985223986582576,1.149933948937706,1.7869293689727783,1.0
514,2,14,1,-1,-1.5263733183296149,1.606842419295496,1.2507801555156801,0.5985223986582576,1.149933948937706,1.3769341707229614,1.0
515,2,15,-1,-1,-1.5277091141256913,0.8736720562856509,1.2507801555156801,0.5985223986582576,1.149933948937706,1.3969342708587646,1.0
516,2,16,1,-1,-0.19001958276792963,1.606842419295496,1.2507801555156801,0.5985223986582576,1.149933948937706,1.4399337768554688,1.0
517,2,17,1,1,-1.1267398477422468,1.606842419295496,1.2507801555156801,0.2999967026268533,1.149933948937706,1.6279313564300537,0.0
518,2,18,-1,-1,0.2683058991788796,0.8736720562856509,1.2507801555156801,0.5985223986582576,1.149933948937706,5.053833484649658,1.0
519,2,19,1,1,2.2830102332754048,1.606842419295496,1.2507801555156801,0.2999967026268533,1.149933948937706,2.217927932739258,1.0
520,2,20,-1,-1,-1.6977320467617996,0.8736720562856509,1.2507801555156801,0.5985223986582576,1.149933948937706,1.8849279880523682,1.0
521,2,21,1,-1,-1.4498637964832295,1.606842419295496,1.2507801555156801,0.5985223986582576,1.149933948937706,1.4199340343475342,1.0
522,2,22,-1,1,0.6251008075488899,0.8736720562856509,1.2507801555156801,0.2999967026268533,1.149933948937706,2.7399520874023438,1.0
523,2,23,-1,-1,-1.7130725057457616,0.8736720562856509,1.2507801555156801,0.5985223986582576,1.149933948937706,1.6439311504364014,1.0
524,2,24,-1,1,1.5205766887353716,0.8736720562856509,1.2507801555156801,0.2999967026268533,1.149933948937706,1.755929708480835,1.0
525,2,25,-1,-1,-1.8098511363285716,0.8736720562856509,1.2507801555156801,0.5985223986582576,1.149933948937706,1.3539341688156128,1.0
526,2,26,1,1,0.2479798589508111,1.606842419295496,1.2507801555156801,0.2999967026268533,1.149933948937706,2.0569257736206055,1.0
527,2,27,-1,1,-0.35761141798609697,0.8736720562856509,1.2507801555156801,0.2999967026268533,1.149933948937706,1.4049341678619385,0.0
528,2,28,1,1,1.9190794446072896,1.606842419295496,1.2507801555156801,0.2999967026268533,1.149933948937706,2.7269515991210938,1.0
529,2,29,-1,-1,-1.5254926917453426,0.8736720562856509,1.2507801555156801,0.5985223986582576,1.149933948937706,2.075925588607788,1.0
530,2,30,-1,-1,-0.90459093855588,0.8736720562856509,1.2507801555156801,0.5985223986582576,1.149933948937706,2.6099462509155273,1.0
531,2,31,1,1,1.3453603360477424,1.606842419295496,1.2507801555156801,0.2999967026268533,1.149933948937706,2.5819449424743652,1.0
532,2,32,1,1,2.1787292738818245,1.606842419295496,1.2507801555156801,0.2999967026268533,1.149933948937706,2.6759490966796875,1.0
533,2,33,-1,-1,-2.696259733851204,0.8736720562856509,1.2507801555156801,0.5985223986582576,1.149933948937706,1.7939292192459106,1.0
534,2,34,-1,1,1.769881765826646,0.8736720562856509,1.2507801555156801,0.2999967026268533,1.149933948937706,1.240933895111084,0.0
535,2,35,-1,1,2.301125332740827,0.8736720562856509,1.2507801555156801,0.2999967026268533,1.149933948937706,1.7599296569824219,1.0
536,2,36,1,1,2.689042894575829,1.606842419295496,1.2507801555156801,0.2999967026268533,1.149933948937706,1.4889330863952637,1.0
537,2,37,-1,-1,-1.282191824858129,0.8736720562856509,1.2507801555156801,0.5985223986582576,1.149933948937706,1.5859318971633911,1.0
538,2,38,1,-1,-0.9077818289527423,1.606842419295496,1.2507801555156801,0.5985223986582576,1.149933948937706,1.2829340696334839,1.0
539,2,39,-1,-1,-1.1902077568377392,0.8736720562856509,1.2507801555156801,0.5985223986582576,1.149933948937706,1.8339287042617798,1.0
540,2,40,1,1,1.937669846558752,1.606842419295496,1.2507801555156801,0.2999967026268533,1.149933948937706,1.7899292707443237,1.0
541,2,41,1,-1,-1.2293381997074389,1.606842419295496,1.2507801555156801,0.5985223986582576,1.149933948937706,1.2809339761734009,1.0
542,2,42,-1,1,0.5230726183175842,0.8736720562856509,1.2507801555156801,0.2999967026268533,1.149933948937706,2.263929843902588,1.0
543,2,43,1,1,0.6881600415560901,1.606842419295496,1.2507801555156801,0.2999967026268533,1.149933948937706,1.6079316139221191,0.0
544,2,44,-1,-1,-0.8722580494595914,0.8736720562856509,1.2507801555156801,0.5985223986582576,1.149933948937706,2.1119251251220703,1.0
545,2,45,-1,-1,-2.895282665364358,0.8736720562856509,1.2507801555156801,0.5985223986582576,1.149933948937706,1.4869331121444702,1.0
546,2,46,-1,1,1.2837474795661683,0.8736720562856509,1.2507801555156801,0.2999967026268533,1.149933948937706,1.4119341373443604,0.0
547,2,47,-1,-1,-0.2357222322222422,0.8736720562856509,1.2507801555156801,0.5985223986582576,1.149933948937706,1.9299274682998657,1.0
548,2,48,-1,-1,-2.6569358021554694,0.8736720562856509,1.2507801555156801,0.5985223986582576,1.149933948937706,1.4559335708618164,1.0
549,2,49,-1,1,3.5487946131587225,0.8736720562856509,1.2507801555156801,0.2999967026268533,1.149933948937706,4.270890235900879,1.0
550,2,50,-1,-1,-1.931810282549649,0.8736720562856509,1.2507801555156801,0.5985223986582576,1.149933948937706,1.3369340896606445,1.0
551,2,51,-1,1,-0.07046654276561637,0.8736720562856509,1.2507801555156801,0.2999967026268533,1.149933948937706,3.1749696731567383,1.0
552,2,52,1,-1,0.3253992623007995,1.606842419295496,1.2507801555156801,0.5985223986582576,1.149933948937706,1.337934136390686,1.0
553,2,53,1,1,1.6297300266495816,1.606842419295496,1.2507801555156801,0.2999967026268533,1.149933948937706,1.7179301977157593,1.0
554,2,54,1,1,0.5538355853139524,1.606842419295496,1.2507801555156801,0.2999967026268533,1.149933948937706,3.1519713401794434,1.0
555,2,55,1,1,1.1023934557636246,1.606842419295496,1.2507801555156801,0.2999967026268533,1.149933948937706,2.322932720184326,1.0
556,2,56,-1,-1,-1.0352001284007175,0.8736720562856509,1.2507801555156801,0.5985223986582576,1.149933948937706,2.3619346618652344,1.0
557,2,57,1,1,0.626143792126635,1.606842419295496,1.2507801555156801,0.2999967026268533,1.149933948937706,2.302931785583496,1.0
558,2,58,-1,-1,-2.1582701505268775,0.8736720562856509,1.2507801555156801,0.5985223986582576,1.149933948937706,1.7849292755126953,1.0
559,2,59,1,1,-0.8980083091564914,1.606842419295496,1.2507801555156801,0.2999967026268533,1.149933948937706,1.6939305067062378,1.0
560,2,60,-1,1,1.9336579597431753,0.8736720562856509,1.2507801555156801,0.2999967026268533,1.149933948937706,3.1449711322784424,1.0
561,2,61,1,1,-0.14725584571104378,1.606842419295496,1.2507801555156801,0.2999967026268533,1.149933948937706,1.703930377960205,1.0
562,2,62,1,1,0.40084845489326604,1.606842419295496,1.2507801555156801,0.2999967026268533,1.149933948937706,2.037926197052002,1.0
563,2,63,-1,1,1.5400259477292524,0.8736720562856509,1.2507801555156801,0.2999967026268533,1.149933948937706,2.3869357109069824,1.0
564,2,64,1,-1,0.7191793879833566,1.606842419295496,1.2507801555156801,0.5985223986582576,1.149933948937706,2.565944194793701,1.0
565,2,65,-1,-1,-2.0110309382184752,0.8736720562856509,1.2507801555156801,0.5985223986582576,1.149933948937706,1.4159340858459473,1.0
566,2,66,-1,-1,-0.3817183106237956,0.8736720562856509,1.2507801555156801,0.5985223986582576,1.149933948937706,1.6149314641952515,1.0
567,2,67,-1,1,1.808563365471286,0.8736720562856509,1.2507801555156801,0.2999967026268533,1.149933948937706,3.062967300415039,1.0
568,2,68,1,1,2.648946460667809,1.606842419295496,1.2507801555156801,0.2999967026268533,1.149933948937706,1.4189339876174927,1.0
569,2,69,-1,1,-0.27819980327002436,0.8736720562856509,1.2507801555156801,0.2999967026268533,1.149933948937706,2.820955991744995,1.0
570,2,70,-1,-1,-1.6236845199483656,0.8736720562856509,1.2507801555156801,0.5985223986582576,1.149933948937706,1.6989305019378662,1.0
571,2,71,-1,1,1.7097325382166806,0.8736720562856509,1.2507801555156801,0.2999967026268533,1.149933948937706,3.60593843460083,1.0
572,2,72,1,1,1.8053085549975414,1.606842419295496,1.2507801555156801,0.2999967026268533,1.149933948937706,2.6859498023986816,1.0
573,2,73,1,-1,-1.3314360176336646,1.606842419295496,1.2507801555156801,0.5985223986582576,1.149933948937706,2.778954029083252,1.0
574,2,74,1,-1,-1.8190187447381754,1.606842419295496,1.2507801555156801,0.5985223986582576,1.149933948937706,1.6769306659698486,1.0
575,2,75,-1,1,-0.13487325269262107,0.8736720562856509,1.2507801555156801,0.2999967026268533,1.149933948937706,2.590945243835449,1.0
576,2,76,1,1,-0.08155043308809562,1.606842419295496,1.2507801555156801,0.2999967026268533,1.149933948937706,1.8859280347824097,0.0
577,2,77,1,1,1.498515118877401,1.606842419295496,1.2507801555156801,0.2999967026268533,1.149933948937706,2.492940664291382,1.0
578,2,78,-1,1,0.985555677510335,0.8736720562856509,1.2507801555156801,0.2999967026268533,1.149933948937706,2.1739258766174316,1.0
579,2,79,-1,1,1.123295888704758,0.8736720562856509,1.2507801555156801,0.2999967026268533,1.149933948937706,2.6349472999572754,1.0
580,2,80,-1,1,1.504382430933096,0.8736720562856509,1.2507801555156801,0.2999967026268533,1.149933948937706,5.621792316436768,1.0
581,2,81,-1,-1,-2.124879711451142,0.8736720562856509,1.2507801555156801,0.5985223986582576,1.149933948937706,2.209927558898926,1.0
582,2,82,-1,1,1.6724405638605453,0.8736720562856509,1.2507801555156801,0.2999967026268533,1.149933948937706,1.8549284934997559,0.0
583,2,83,1,1,-0.19056619260856378,1.606842419295496,1.2507801555156801,0.2999967026268533,1.149933948937706,4.276889801025391,1.0
584,2,84,-1,1,1.8546694123845586,0.8736720562856509,1.2507801555156801,0.2999967026268533,1.149933948937706,2.5989456176757812,1.0
585,2,85,-1,1,-1.3666790591726912,0.8736720562856509,1.2507801555156801,0.2999967026268533,1.149933948937706,3.2539639472961426,1.0
586,2,86,1,-1,-1.5173313411073015,1.606842419295496,1.2507801555156801,0.5985223986582576,1.149933948937706,1.750929832458496,1.0
587,2,87,-1,-1,-2.2075663946914927,0.8736720562856509,1.2507801555156801,0.5985223986582576,1.149933948937706,2.0209262371063232,1.0
588,2,88,1,1,-0.631024560789609,1.606842419295496,1.2507801555156801,0.2999967026268533,1.149933948937706,2.478940010070801,1.0
589,2,89,1,-1,-0.9193396651979565,1.606842419295496,1.2507801555156801,0.5985223986582576,1.149933948937706,1.7269301414489746,1.0
590,2,90,-1,1,-0.9984092073672708,0.8736720562856509,1.2507801555156801,0.2999967026268533,1.149933948937706,1.8529284000396729,1.0
591,2,91,1,1,-0.6770245816851759,1.606842419295496,1.2507801555156801,0.2999967026268533,1.149933948937706,1.8979278802871704,1.0
592,2,92,1,-1,-2.4074184890487733,1.606842419295496,1.2507801555156801,0.5985223986582576,1.149933948937706,2.0069265365600586,1.0
593,2,93,-1,1,1.2962060236634314,0.8736720562856509,1.2507801555156801,0.2999967026268533,1.149933948937706,1.3209340572357178,0.0
594,2,94,1,-1,-2.8400805522327905,1.606842419295496,1.2507801555156801,0.5985223986582576,1.149933948937706,2.747952461242676,1.0
595,2,95,-1,1,1.0899519467126724,0.8736720562856509,1.2507801555156801,0.2999967026268533,1.149933948937706,3.8349218368530273,1.0
596,2,96,-1,1,0.600137833080137,0.8736720562856509,1.2507801555156801,0.2999967026268533,1.149933948937706,1.8799281120300293,0.0
597,2,97,-1,1,-0.2887310252455271,0.8736720562856509,1.2507801555156801,0.2999967026268533,1.149933948937706,3.4309511184692383,1.0
598,2,98,-1,1,0.3462804941286436,0.8736720562856509,1.2507801555156801,0.2999967026268533,1.149933948937706,1.6199314594268799,0.0
599,2,99,-1,1,0.2984597277299551,0.8736720562856509,1.2507801555156801,0.2999967026268533,1.149933948937706,2.4299378395080566,1.0
600,2,100,1,-1,-1.0196492828975483,1.606842419295496,1.2507801555156801,0.5985223986582576,1.149933948937706,1.3509341478347778,1.0
601,2,101,1,-1,0.11147295991783812,1.606842419295496,1.2507801555156801,0.5985223986582576,1.149933948937706,1.6809306144714355,1.0
602,2,102,1,1,1.3743403109116963,1.606842419295496,1.2507801555156801,0.2999967026268533,1.149933948937706,1.4039342403411865,0.0
603,2,103,1,1,-0.948897448166611,1.606842419295496,1.2507801555156801,0.2999967026268533,1.149933948937706,1.4749332666397095,1.0
604,2,104,1,1,0.39847019553080876,1.606842419295496,1.2507801555156801,0.2999967026268533,1.149933948937706,3.355956554412842,1.0
605,2,105,1,1,-0.29050415831576437,1.606842419295496,1.2507801555156801,0.2999967026268533,1.149933948937706,1.9469273090362549,1.0
606,2,106,1,1,1.8405274839117614,1.606842419295496,1.2507801555156801,0.2999967026268533,1.149933948937706,1.4969329833984375,1.0
607,2,107,1,-1,-2.01305336162321,1.606842419295496,1.2507801555156801,0.5985223986582576,1.149933948937706,1.2849340438842773,1.0
608,2,108,-1,-1,-0.974400866822704,0.8736720562856509,1.2507801555156801,0.5985223986582576,1.149933948937706,1.6029316186904907,1.0
609,2,109,-1,-1,-1.6485273642422467,0.8736720562856509,1.2507801555156801,0.5985223986582576,1.149933948937706,3.547942638397217,1.0
610,2,110,1,1,2.0861372841047388,1.606842419295496,1.2507801555156801,0.2999967026268533,1.149933948937706,1.9709270000457764,1.0
611,2,111,1,-1,-1.274425378043734,1.606842419295496,1.2507801555156801,0.5985223986582576,1.149933948937706,1.300934076309204,1.0
612,2,112,-1,-1,-2.4819271113838672,0.8736720562856509,1.2507801555156801,0.5985223986582576,1.149933948937706,1.9199275970458984,1.0
613,2,113,1,1,1.4172327691433957,1.606842419295496,1.2507801555156801,0.2999967026268533,1.149933948937706,4.230893135070801,1.0
614,2,114,-1,-1,-0.9239954334203864,0.8736720562856509,1.2507801555156801,0.5985223986582576,1.149933948937706,1.541932463645935,1.0
615,2,115,-1,-1,0.9596248989383438,0.8736720562856509,1.2507801555156801,0.5985223986582576,1.149933948937706,2.1719255447387695,1.0
616,2,116,1,-1,-0.16080654483385404,1.606842419295496,1.2507801555156801,0.5985223986582576,1.149933948937706,2.2129275798797607,1.0
617,2,117,-1,1,1.1280460311016038,0.8736720562856509,1.2507801555156801,0.2999967026268533,1.149933948937706,4.305887699127197,1.0
618,2,118,1,-1,-2.0975147374443877,1.606842419295496,1.2507801555156801,0.5985223986582576,1.149933948937706,1.6879305839538574,1.0
619,2,119,-1,-1,-1.6990583038299034,0.8736720562856509,1.2507801555156801,0.5985223986582576,1.149933948937706,1.803929090499878,1.0
620,2,120,1,1,0.9915461043586302,1.606842419295496,1.2507801555156801,0.2999967026268533,1.149933948937706,2.132924795150757,1.0
621,2,121,-1,1,2.1408275006600492,0.8736720562856509,1.2507801555156801,0.2999967026268533,1.149933948937706,3.5569419860839844,1.0
622,2,122,-1,-1,-0.40389567006170646,0.8736720562856509,1.2507801555156801,0.5985223986582576,1.149933948937706,1.409934163093567,1.0
623,2,123,1,-1,-0.9433387298339391,1.606842419295496,1.2507801555156801,0.5985223986582576,1.149933948937706,2.1739258766174316,1.0
624,2,124,1,1,1.3197758880296604,1.606842419295496,1.2507801555156801,0.2999967026268533,1.149933948937706,1.6459311246871948,0.0
625,2,125,1,-1,0.2769133972928437,1.606842419295496,1.2507801555156801,0.5985223986582576,1.149933948937706,2.116925001144409,1.0
626,2,126,-1,1,0.5001056928602337,0.8736720562856509,1.2507801555156801,0.2999967026268533,1.149933948937706,2.1659255027770996,1.0
627,2,127,-1,-1,-1.7141921005054823,0.8736720562856509,1.2507801555156801,0.5985223986582576,1.149933948937706,2.3549342155456543,1.0
628,2,128,1,-1,-1.2729450783980958,1.606842419295496,1.2507801555156801,0.5985223986582576,1.149933948937706,1.3899343013763428,1.0
629,2,129,-1,-1,0.08418943473175045,0.8736720562856509,1.2507801555156801,0.5985223986582576,1.149933948937706,2.738952159881592,1.0
630,2,130,-1,-1,-1.5045043487233292,0.8736720562856509,1.2507801555156801,0.5985223986582576,1.149933948937706,1.8759281635284424,1.0
631,2,131,-1,-1,-0.542391752444054,0.8736720562856509,1.2507801555156801,0.5985223986582576,1.149933948937706,1.6309312582015991,1.0
632,2,132,-1,-1,-2.6723837534277655,0.8736720562856509,1.2507801555156801,0.5985223986582576,1.149933948937706,2.9179606437683105,1.0
633,2,133,-1,1,2.0793405715649316,0.8736720562856509,1.2507801555156801,0.2999967026268533,1.149933948937706,2.2789306640625,1.0
634,2,134,1,-1,-0.24725365445197456,1.606842419295496,1.2507801555156801,0.5985223986582576,1.149933948937706,2.1099252700805664,1.0
635,2,135,-1,1,0.7533957736695809,0.8736720562856509,1.2507801555156801,0.2999967026268533,1.149933948937706,3.520944595336914,1.0
636,2,136,1,-1,-0.4594150841811563,1.606842419295496,1.2507801555156801,0.5985223986582576,1.149933948937706,1.8829281330108643,1.0
637,2,137,-1,-1,-0.06837778633222213,0.8736720562856509,1.2507801555156801,0.5985223986582576,1.149933948937706,2.259929656982422,1.0
638,2,138,-1,1,0.5456326772757429,0.8736720562856509,1.2507801555156801,0.2999967026268533,1.149933948937706,2.3529341220855713,1.0
639,2,139,1,1,-0.35950423800029774,1.606842419295496,1.2507801555156801,0.2999967026268533,1.149933948937706,1.917927622795105,1.0
640,2,140,1,1,1.8254670023487671,1.606842419295496,1.2507801555156801,0.2999967026268533,1.149933948937706,1.896927833557129,1.0
641,2,141,-1,-1,-2.0984717219943363,0.8736720562856509,1.2507801555156801,0.5985223986582576,1.149933948937706,2.6739492416381836,1.0
642,2,142,1,1,1.6126836402927678,1.606842419295496,1.2507801555156801,0.2999967026268533,1.149933948937706,2.1599249839782715,1.0
643,2,143,-1,-1,0.23890070112889572,0.8736720562856509,1.2507801555156801,0.5985223986582576,1.149933948937706,2.0119264125823975,1.0
644,2,144,1,1,2.769714239905512,1.606842419295496,1.2507801555156801,0.2999967026268533,1.149933948937706,1.7879292964935303,1.0
645,2,145,-1,1,1.8365603865198126,0.8736720562856509,1.2507801555156801,0.2999967026268533,1.149933948937706,3.204967498779297,1.0
646,2,146,-1,1,1.6534918478993785,0.8736720562856509,1.2507801555156801,0.2999967026268533,1.149933948937706,1.3059340715408325,0.0
647,2,147,-1,-1,-0.5556509979022084,0.8736720562856509,1.2507801555156801,0.5985223986582576,1.149933948937706,2.234928607940674,1.0
648,2,148,-1,1,-0.1780461176626098,0.8736720562856509,1.2507801555156801,0.2999967026268533,1.149933948937706,1.898927927017212,1.0
649,2,149,-1,1,0.9309409480515894,0.8736720562856509,1.2507801555156801,0.2999967026268533,1.149933948937706,3.9439139366149902,1.0
650,2,150,-1,1,1.6093896073472378,0.8736720562856509,1.2507801555156801,0.2999967026268533,1.149933948937706,3.1279702186584473,1.0
651,2,151,-1,1,2.2962289178513133,0.8736720562856509,1.2507801555156801,0.2999967026268533,1.149933948937706,3.049966812133789,0.0
652,2,152,-1,-1,-1.7851814570142577,0.8736720562856509,1.2507801555156801,0.5985223986582576,1.149933948937706,1.4969329833984375,1.0
653,2,153,1,1,-0.029369251575656508,1.606842419295496,1.2507801555156801,0.2999967026268533,1.149933948937706,2.224928140640259,1.0
654,2,154,-1,-1,-0.5578360773414655,0.8736720562856509,1.2507801555156801,0.5985223986582576,1.149933948937706,2.4199371337890625,1.0
655,2,155,1,-1,-0.5762641654110543,1.606842419295496,1.2507801555156801,0.5985223986582576,1.149933948937706,1.7439298629760742,1.0
656,2,156,1,-1,1.2115456868032375,1.606842419295496,1.2507801555156801,0.5985223986582576,1.149933948937706,1.3169341087341309,1.0
657,2,157,-1,-1,-0.867320875596092,0.8736720562856509,1.2507801555156801,0.5985223986582576,1.149933948937706,1.5559322834014893,1.0
658,2,158,1,1,2.6885228358023108,1.606842419295496,1.2507801555156801,0.2999967026268533,1.149933948937706,2.317932605743408,1.0
659,2,159,-1,-1,-3.1953073502466305,0.8736720562856509,1.2507801555156801,0.5985223986582576,1.149933948937706,2.037926197052002,1.0
660,2,160,-1,-1,-0.899976041609926,0.8736720562856509,1.2507801555156801,0.5985223986582576,1.149933948937706,2.553943634033203,1.0
661,2,161,1,1,0.22344113683405142,1.606842419295496,1.2507801555156801,0.2999967026268533,1.149933948937706,2.9479618072509766,1.0
662,2,162,-1,1,1.192963876546208,0.8736720562856509,1.2507801555156801,0.2999967026268533,1.149933948937706,2.6049458980560303,1.0
663,2,163,1,-1,-1.4889670546361544,1.606842419295496,1.2507801555156801,0.5985223986582576,1.149933948937706,2.256929636001587,1.0
664,2,164,-1,1,1.1406702454528956,0.8736720562856509,1.2507801555156801,0.2999967026268533,1.149933948937706,1.8609282970428467,1.0
665,2,165,-1,-1,-0.2906540179813534,0.8736720562856509,1.2507801555156801,0.5985223986582576,1.149933948937706,1.40593421459198,1.0
666,2,166,1,1,0.2434692070037845,1.606842419295496,1.2507801555156801,0.2999967026268533,1.149933948937706,1.6989305019378662,0.0
667,2,167,-1,-1,-0.271268973676389,0.8736720562856509,1.2507801555156801,0.5985223986582576,1.149933948937706,1.4309338331222534,1.0
668,2,168,-1,-1,1.0405924385163536,0.8736720562856509,1.2507801555156801,0.5985223986582576,1.149933948937706,2.283930778503418,1.0
669,2,169,1,-1,-1.7478893290673956,1.606842419295496,1.2507801555156801,0.5985223986582576,1.149933948937706,2.4079365730285645,1.0
670,2,170,-1,-1,-1.1567980246844252,0.8736720562856509,1.2507801555156801,0.5985223986582576,1.149933948937706,1.4089341163635254,1.0
671,2,171,1,1,2.0905145330058827,1.606842419295496,1.2507801555156801,0.2999967026268533,1.149933948937706,2.26593017578125,1.0
672,2,172,1,1,1.3237394232036008,1.606842419295496,1.2507801555156801,0.2999967026268533,1.149933948937706,2.3389334678649902,0.0
673,2,173,-1,-1,-1.3399262052549799,0.8736720562856509,1.2507801555156801,0.5985223986582576,1.149933948937706,2.7109508514404297,0.0
674,2,174,1,1,1.0159368281084684,1.606842419295496,1.2507801555156801,0.2999967026268533,1.149933948937706,2.516941785812378,1.0
675,2,175,-1,-1,-1.3052735930072008,0.8736720562856509,1.2507801555156801,0.5985223986582576,1.149933948937706,3.393953800201416,1.0
676,2,176,1,-1,-2.720659274448069,1.606842419295496,1.2507801555156801,0.5985223986582576,1.149933948937706,1.3319340944290161,1.0
677,2,177,1,-1,-0.37064572923763717,1.606842419295496,1.2507801555156801,0.5985223986582576,1.149933948937706,2.319932460784912,1.0
678,2,178,-1,-1,-1.6057995478410865,0.8736720562856509,1.2507801555156801,0.5985223986582576,1.149933948937706,1.8119289875030518,1.0
679,2,179,1,-1,-0.5671684272739728,1.606842419295496,1.2507801555156801,0.5985223986582576,1.149933948937706,2.224928140640259,1.0
680,2,180,1,1,2.5207912034521973,1.606842419295496,1.2507801555156801,0.2999967026268533,1.149933948937706,2.9689629077911377,1.0
681,2,181,-1,1,1.724836614923357,0.8736720562856509,1.2507801555156801,0.2999967026268533,1.149933948937706,2.088925361633301,1.0
682,2,182,1,1,2.259983947926357,1.606842419295496,1.2507801555156801,0.2999967026268533,1.149933948937706,2.511941432952881,1.0
683,2,183,-1,-1,0.3156624260672163,0.8736720562856509,1.2507801555156801,0.5985223986582576,1.149933948937706,2.48494029045105,1.0
684,2,184,1,1,0.4184347279323535,1.606842419295496,1.2507801555156801,0.2999967026268533,1.149933948937706,1.848928451538086,1.0
685,2,185,1,-1,-0.7299086100335872,1.606842419295496,1.2507801555156801,0.5985223986582576,1.149933948937706,1.7499297857284546,1.0
686,2,186,1,1,2.080060041874752,1.606842419295496,1.2507801555156801,0.2999967026268533,1.149933948937706,3.461948871612549,1.0
687,2,187,-1,-1,-0.14677124713321565,0.8736720562856509,1.2507801555156801,0.5985223986582576,1.149933948937706,1.751929759979248,1.0
688,2,188,-1,1,-0.19047482569639507,0.8736720562856509,1.2507801555156801,0.2999967026268533,1.149933948937706,2.516941785812378,1.0
689,2,189,1,1,1.2070563127047638,1.606842419295496,1.2507801555156801,0.2999967026268533,1.149933948937706,1.9049277305603027,1.0
690,2,190,1,1,0.5017065116296024,1.606842419295496,1.2507801555156801,0.2999967026268533,1.149933948937706,1.9859267473220825,1.0
691,2,191,1,1,-0.2522387129818613,1.606842419295496,1.2507801555156801,0.2999967026268533,1.149933948937706,1.8329286575317383,1.0
692,2,192,-1,1,-0.16583559305167817,0.8736720562856509,1.2507801555156801,0.2999967026268533,1.149933948937706,2.273930549621582,1.0
693,2,193,1,1,1.8785360024440574,1.606842419295496,1.2507801555156801,0.2999967026268533,1.149933948937706,2.1909265518188477,1.0
694,2,194,-1,1,-0.9977341293981588,0.8736720562856509,1.2507801555156801,0.2999967026268533,1.149933948937706,2.9379615783691406,1.0
695,2,195,-1,-1,-0.29762294884093277,0.8736720562856509,1.2507801555156801,0.5985223986582576,1.149933948937706,1.276934027671814,1.0
696,2,196,-1,1,3.1644756837872605,0.8736720562856509,1.2507801555156801,0.2999967026268533,1.149933948937706,1.9789268970489502,1.0
697,2,197,1,1,-0.6406489681357119,1.606842419295496,1.2507801555156801,0.2999967026268533,1.149933948937706,3.397953510284424,1.0
698,2,198,-1,-1,-1.45808604640451,0.8736720562856509,1.2507801555156801,0.5985223986582576,1.149933948937706,1.6049315929412842,1.0
699,2,199,1,1,0.8502230322647011,1.606842419295496,1.2507801555156801,0.2999967026268533,1.149933948937706,1.8839280605316162,1.0
700,2,200,1,-1,-2.535197130328067,1.606842419295496,1.2507801555156801,0.5985223986582576,1.149933948937706,1.5029329061508179,1.0
701,2,201,-1,1,0.25792072789271026,0.8736720562856509,1.2507801555156801,0.2999967026268533,1.149933948937706,1.2639340162277222,0.0
702,2,202,1,-1,-1.6327757060632484,1.606842419295496,1.2507801555156801,0.5985223986582576,1.149933948937706,2.840956926345825,1.0
703,2,203,1,1,1.815469392633453,1.606842419295496,1.2507801555156801,0.2999967026268533,1.149933948937706,1.8859280347824097,1.0
704,2,204,1,-1,-0.6157911174041084,1.606842419295496,1.2507801555156801,0.5985223986582576,1.149933948937706,1.4779332876205444,1.0
705,2,205,1,-1,-2.3219617176373055,1.606842419295496,1.2507801555156801,0.5985223986582576,1.149933948937706,2.4629392623901367,1.0
706,2,206,-1,1,1.9570919577681973,0.8736720562856509,1.2507801555156801,0.2999967026268533,1.149933948937706,1.9959266185760498,1.0
707,2,207,-1,-1,1.0812892012971198,0.8736720562856509,1.2507801555156801,0.5985223986582576,1.149933948937706,1.8149290084838867,1.0
708,2,208,1,-1,-2.249610661925134,1.606842419295496,1.2507801555156801,0.5985223986582576,1.149933948937706,1.5979317426681519,0.0
709,2,209,1,1,0.47425435342792155,1.606842419295496,1.2507801555156801,0.2999967026268533,1.149933948937706,1.938927412033081,1.0
710,2,210,1,-1,-0.17095289124673785,1.606842419295496,1.2507801555156801,0.5985223986582576,1.149933948937706,1.9279274940490723,1.0
711,2,211,1,-1,-1.514522011657216,1.606842419295496,1.2507801555156801,0.5985223986582576,1.149933948937706,1.8869280815124512,1.0
712,2,212,-1,-1,-1.0869460627217737,0.8736720562856509,1.2507801555156801,0.5985223986582576,1.149933948937706,1.6069315671920776,1.0
713,2,213,1,1,0.6475773917341711,1.606842419295496,1.2507801555156801,0.2999967026268533,1.149933948937706,2.4479384422302246,1.0
714,2,214,1,1,1.3088592024413757,1.606842419295496,1.2507801555156801,0.2999967026268533,1.149933948937706,1.798929214477539,1.0
715,2,215,-1,1,0.44225368845682267,0.8736720562856509,1.2507801555156801,0.2999967026268533,1.149933948937706,2.028926134109497,1.0
716,2,216,-1,-1,-0.5333270307461027,0.8736720562856509,1.2507801555156801,0.5985223986582576,1.149933948937706,1.3559341430664062,1.0
717,2,217,1,-1,-2.1635555874358428,1.606842419295496,1.2507801555156801,0.5985223986582576,1.149933948937706,2.8859591484069824,1.0
718,2,218,1,-1,-0.30858925048620867,1.606842419295496,1.2507801555156801,0.5985223986582576,1.149933948937706,1.5349324941635132,1.0
719,2,219,1,1,0.014273651375177998,1.606842419295496,1.2507801555156801,0.2999967026268533,1.149933948937706,1.6699308156967163,1.0
720,2,220,-1,1,2.575928824502554,0.8736720562856509,1.2507801555156801,0.2999967026268533,1.149933948937706,1.7099303007125854,1.0
721,2,221,1,1,1.5928610487450885,1.606842419295496,1.2507801555156801,0.2999967026268533,1.149933948937706,1.2549339532852173,0.0
722,2,222,-1,-1,0.011170007301820606,0.8736720562856509,1.2507801555156801,0.5985223986582576,1.149933948937706,1.5369324684143066,1.0
723,2,223,1,-1,0.5113999490706598,1.606842419295496,1.2507801555156801,0.5985223986582576,1.149933948937706,1.4869331121444702,1.0
724,2,224,-1,1,1.7754610493046785,0.8736720562856509,1.2507801555156801,0.2999967026268533,1.149933948937706,2.822956085205078,1.0
725,2,225,1,1,0.019057357790039586,1.606842419295496,1.2507801555156801,0.2999967026268533,1.149933948937706,1.988926649093628,1.0
726,2,226,-1,1,1.303463594284626,0.8736720562856509,1.2507801555156801,0.2999967026268533,1.149933948937706,2.288931131362915,1.0
727,2,227,1,-1,-1.414846493971899,1.606842419295496,1.2507801555156801,0.5985223986582576,1.149933948937706,1.8709282875061035,1.0
728,2,228,-1,-1,-0.11643032865742786,0.8736720562856509,1.2507801555156801,0.5985223986582576,1.149933948937706,1.6459311246871948,1.0
729,2,229,-1,1,0.32159508325082575,0.8736720562856509,1.2507801555156801,0.2999967026268533,1.149933948937706,2.519941806793213,1.0
730,2,230,1,-1,-2.9657618047515077,1.606842419295496,1.2507801555156801,0.5985223986582576,1.149933948937706,1.3929342031478882,1.0
731,2,231,-1,-1,-2.009733937176976,0.8736720562856509,1.2507801555156801,0.5985223986582576,1.149933948937706,2.088925361633301,1.0
732,2,232,-1,1,1.5668173907903054,0.8736720562856509,1.2507801555156801,0.2999967026268533,1.149933948937706,1.5259326696395874,1.0
733,2,233,1,-1,-3.5018939005349585,1.606842419295496,1.2507801555156801,0.5985223986582576,1.149933948937706,1.340934157371521,1.0
734,2,234,1,1,1.4288031679612114,1.606842419295496,1.2507801555156801,0.2999967026268533,1.149933948937706,2.264930009841919,1.0
735,2,235,1,1,0.2207050461868859,1.606842419295496,1.2507801555156801,0.2999967026268533,1.149933948937706,2.9249608516693115,1.0
736,2,236,-1,1,1.590686488744526,0.8736720562856509,1.2507801555156801,0.2999967026268533,1.149933948937706,1.310934066772461,0.0
737,2,237,1,1,0.42608384816282574,1.606842419295496,1.2507801555156801,0.2999967026268533,1.149933948937706,2.037926197052002,1.0
738,2,238,1,-1,-2.8262983330629456,1.606842419295496,1.2507801555156801,0.5985223986582576,1.149933948937706,1.476933240890503,1.0
739,2,239,-1,-1,0.4519103725637672,0.8736720562856509,1.2507801555156801,0.5985223986582576,1.149933948937706,2.4129369258880615,1.0
740,2,240,-1,-1,0.011272312745581603,0.8736720562856509,1.2507801555156801,0.5985223986582576,1.149933948937706,2.816955804824829,1.0
741,2,241,1,-1,-0.09432658258477311,1.606842419295496,1.2507801555156801,0.5985223986582576,1.149933948937706,1.938927412033081,1.0
742,2,242,-1,1,2.3730478558067,0.8736720562856509,1.2507801555156801,0.2999967026268533,1.149933948937706,1.6719307899475098,1.0
743,2,243,-1,-1,-1.0460389830590748,0.8736720562856509,1.2507801555156801,0.5985223986582576,1.149933948937706,3.18096923828125,0.0
744,2,244,-1,1,1.5786467324169204,0.8736720562856509,1.2507801555156801,0.2999967026268533,1.149933948937706,1.5709320306777954,1.0
745,2,245,1,1,0.8878620407398591,1.606842419295496,1.2507801555156801,0.2999967026268533,1.149933948937706,1.7389299869537354,1.0
746,2,246,-1,1,1.6500828712421047,0.8736720562856509,1.2507801555156801,0.2999967026268533,1.149933948937706,1.844928503036499,1.0
747,2,247,-1,-1,-2.7940078585870394,0.8736720562856509,1.2507801555156801,0.5985223986582576,1.149933948937706,1.8179289102554321,1.0
748,2,248,-1,-1,-1.7007004544354902,0.8736720562856509,1.2507801555156801,0.5985223986582576,1.149933948937706,1.9509272575378418,1.0
749,2,249,1,-1,-0.5636624747594858,1.606842419295496,1.2507801555156801,0.5985223986582576,1.149933948937706,2.1859264373779297,1.0
750,2,250,1,1,1.8585793331230622,1.606842419295496,1.2507801555156801,0.2999967026268533,1.149933948937706,1.9819267988204956,1.0
751,2,251,-1,-1,-0.8283604587206149,0.8736720562856509,1.2507801555156801,0.5985223986582576,1.149933948937706,1.4869331121444702,1.0
752,2,252,1,1,-0.8842980236391131,1.606842419295496,1.2507801555156801,0.2999967026268533,1.149933948937706,2.1549248695373535,1.0
