,subj_idx,trial_idx,S,X,M,v,a,z,t,rt,response
0,1,0,-1,-1,-0.37595361094558244,1.1558599191435013,1.5041895878891007,0.5667058282109534,0.9994651892144514,2.0324573516845703,1.0
1,1,1,1,1,0.2579478958580226,-0.2456370675918556,1.5041895878891007,0.5667058282109534,0.9994651892144514,5.471323490142822,0.0
2,1,2,-1,1,0.04025574269223353,0.8150337784235672,1.5041895878891007,0.5667058282109534,0.9994651892144514,2.223466396331787,1.0
3,1,3,1,1,0.538047782655362,-0.36909379974842926,1.5041895878891007,0.5667058282109534,0.9994651892144514,2.0954604148864746,0.0
4,1,4,-1,-1,0.3562273236949478,0.8331440959719358,1.5041895878891007,0.5667058282109534,0.9994651892144514,3.4794678688049316,1.0
5,1,5,-1,1,-0.024854286574865547,0.8437316530847978,1.5041895878891007,0.5667058282109534,0.9994651892144514,2.7774922847747803,1.0
6,1,6,1,1,0.4406596603912194,-0.3261690436442075,1.5041895878891007,0.5667058282109534,0.9994651892144514,7.232195854187012,0.0
7,1,7,1,1,1.9087848506984348,-0.9732594101005718,1.5041895878891007,0.5667058282109534,0.9994651892144514,1.8404579162597656,0.0
8,1,8,-1,-1,0.9800117020393286,0.5582051025962038,1.5041895878891007,0.5667058282109534,0.9994651892144514,4.767374515533447,1.0
9,1,9,-1,1,0.7274304100141851,0.5121549025397996,1.5041895878891007,0.5667058282109534,0.9994651892144514,2.214465856552124,1.0
10,1,10,-1,-1,-2.9460318313695835,2.288646733548394,1.5041895878891007,0.5667058282109534,0.9994651892144514,1.2924649715423584,1.0
11,1,11,1,1,1.238179159750867,-0.6776834706861821,1.5041895878891007,0.5667058282109534,0.9994651892144514,1.5614614486694336,1.0
12,1,12,-1,1,2.0706386170778726,-0.07987709628051642,1.5041895878891007,0.5667058282109534,0.9994651892144514,2.2984697818756104,1.0
13,1,13,1,1,1.5051986171561542,-0.7953748771712177,1.5041895878891007,0.5667058282109534,0.9994651892144514,1.7824586629867554,0.0
14,1,14,-1,1,1.104439061683838,0.34598469568224577,1.5041895878891007,0.5667058282109534,0.9994651892144514,2.3594727516174316,0.0
15,1,15,1,-1,-0.2895935933870263,0.15307498116824886,1.5041895878891007,0.5667058282109534,0.9994651892144514,2.0504581928253174,1.0
16,1,16,-1,1,1.4535286183177891,0.19212009978829236,1.5041895878891007,0.5667058282109534,0.9994651892144514,2.5354809761047363,1.0
17,1,17,-1,-1,-2.099888023042562,1.9157006723950252,1.5041895878891007,0.5667058282109534,0.9994651892144514,2.2974698543548584,1.0
18,1,18,1,-1,-2.397157082274415,1.0820039576329963,1.5041895878891007,0.5667058282109534,0.9994651892144514,1.593461036682129,1.0
19,1,19,-1,-1,-2.141227994559072,1.9339216643748145,1.5041895878891007,0.5667058282109534,0.9994651892144514,2.1304619312286377,1.0
20,1,20,-1,1,0.9895397204086054,0.3966276908043626,1.5041895878891007,0.5667058282109534,0.9994651892144514,1.537461757659912,1.0
21,1,21,-1,1,0.07566322205222953,0.7994275896968678,1.5041895878891007,0.5667058282109534,0.9994651892144514,2.6404857635498047,1.0
22,1,22,-1,-1,-1.5432243775237744,1.670345790706556,1.5041895878891007,0.5667058282109534,0.9994651892144514,1.6574602127075195,1.0
23,1,23,-1,-1,0.3750383382805611,0.8248529594925779,1.5041895878891007,0.5667058282109534,0.9994651892144514,2.4064748287200928,1.0
24,1,24,1,-1,-2.531973799549546,1.141425728720347,1.5041895878891007,0.5667058282109534,0.9994651892144514,1.7414591312408447,1.0
25,1,25,-1,-1,-0.8949697721008575,1.3846213082512402,1.5041895878891007,0.5667058282109534,0.9994651892144514,2.5404810905456543,1.0
26,1,26,1,-1,1.2016968958558967,-0.5042257146771517,1.5041895878891007,0.5667058282109534,0.9994651892144514,4.721377849578857,0.0
27,1,27,-1,1,1.0320666999204426,0.37788351357868705,1.5041895878891007,0.5667058282109534,0.9994651892144514,1.8454577922821045,1.0
28,1,28,1,-1,-2.7661001126049576,1.2446191639344115,1.5041895878891007,0.5667058282109534,0.9994651892144514,1.639460563659668,1.0
29,1,29,-1,-1,-2.3546078786405493,2.0279709105128814,1.5041895878891007,0.5667058282109534,0.9994651892144514,1.5324618816375732,1.0
30,1,30,1,-1,0.9047708868649822,-0.37335270654618274,1.5041895878891007,0.5667058282109534,0.9994651892144514,2.159463405609131,0.0
31,1,31,-1,-1,-2.0290313124160813,1.8844698923853263,1.5041895878891007,0.5667058282109534,0.9994651892144514,1.4154633283615112,1.0
32,1,32,-1,1,-0.3466364740304462,0.9855602620988494,1.5041895878891007,0.5667058282109534,0.9994651892144514,2.2914695739746094,1.0
33,1,33,-1,1,1.182116131205828,0.3117477765733768,1.5041895878891007,0.5667058282109534,0.9994651892144514,1.4284632205963135,1.0
34,1,34,-1,-1,-0.5738807243641726,1.2430982072672032,1.5041895878891007,0.5667058282109534,0.9994651892144514,2.2804689407348633,1.0
35,1,35,1,1,-0.1372981340383288,-0.07142856002409595,1.5041895878891007,0.5667058282109534,0.9994651892144514,2.3574726581573486,1.0
36,1,36,-1,1,4.029825955485503,-0.9434078504266071,1.5041895878891007,0.5667058282109534,0.9994651892144514,3.0295004844665527,0.0
37,1,37,-1,-1,-2.374467780071533,2.0367243540063975,1.5041895878891007,0.5667058282109534,0.9994651892144514,2.653486490249634,1.0
38,1,38,1,1,0.09270022015629353,-0.17280255747523648,1.5041895878891007,0.5667058282109534,0.9994651892144514,4.022428512573242,0.0
39,1,39,-1,1,0.14801974921939653,0.767535751051749,1.5041895878891007,0.5667058282109534,0.9994651892144514,1.471462607383728,1.0
40,1,40,1,-1,-0.9534110154909272,0.44565892548395536,1.5041895878891007,0.5667058282109534,0.9994651892144514,1.942456603050232,1.0
41,1,41,-1,1,0.5595711455042971,0.5861404956635506,1.5041895878891007,0.5667058282109534,0.9994651892144514,1.4734625816345215,1.0
42,1,42,-1,-1,-1.432586193182122,1.6215809416852507,1.5041895878891007,0.5667058282109534,0.9994651892144514,1.5174620151519775,1.0
43,1,43,-1,-1,-1.43905853807015,1.6244336902472105,1.5041895878891007,0.5667058282109534,0.9994651892144514,1.2504655122756958,1.0
44,1,44,-1,-1,0.4375451706805611,0.7973024690093524,1.5041895878891007,0.5667058282109534,0.9994651892144514,2.156463146209717,1.0
45,1,45,1,1,0.4066402628311706,-0.31117466538607674,1.5041895878891007,0.5667058282109534,0.9994651892144514,1.959456443786621,0.0
46,1,46,1,-1,-0.2251713384534212,0.12468024969156291,1.5041895878891007,0.5667058282109534,0.9994651892144514,1.4624627828598022,1.0
47,1,47,1,1,-0.36965683219180145,0.030985781838665155,1.5041895878891007,0.5667058282109534,0.9994651892144514,3.069497585296631,1.0
48,1,48,-1,1,1.1029066292735958,0.3466601300773914,1.5041895878891007,0.5667058282109534,0.9994651892144514,1.5204620361328125,0.0
49,1,49,1,1,2.9100810602936464,-1.4145903915972862,1.5041895878891007,0.5667058282109534,0.9994651892144514,2.8094937801361084,0.0
50,1,50,1,1,0.586026369432139,-0.3902408255636776,1.5041895878891007,0.5667058282109534,0.9994651892144514,3.8464412689208984,1.0
51,1,51,1,1,1.9558797350734454,-0.99401693554162,1.5041895878891007,0.5667058282109534,0.9994651892144514,2.2594680786132812,0.0
52,1,52,1,1,1.4171194449455942,-0.7565531307703008,1.5041895878891007,0.5667058282109534,0.9994651892144514,2.3564724922180176,1.0
53,1,53,1,1,1.6624607930908715,-0.8646897010889429,1.5041895878891007,0.5667058282109534,0.9994651892144514,2.1124610900878906,0.0
54,1,54,-1,-1,-1.8641467019195035,1.811795406766754,1.5041895878891007,0.5667058282109534,0.9994651892144514,1.3844637870788574,1.0
55,1,55,-1,1,2.6928873529878876,-0.3541392404119469,1.5041895878891007,0.5667058282109534,0.9994651892144514,1.6674602031707764,1.0
56,1,56,1,-1,-1.786508666711391,0.8128547668068457,1.5041895878891007,0.5667058282109534,0.9994651892144514,2.664486885070801,1.0
57,1,57,-1,-1,-1.3653077128929447,1.5919273012788484,1.5041895878891007,0.5667058282109534,0.9994651892144514,1.3374643325805664,1.0
58,1,58,-1,1,0.15741989975454662,0.7633925438547781,1.5041895878891007,0.5667058282109534,0.9994651892144514,2.0074563026428223,1.0
59,1,59,1,-1,-2.9515551755571794,1.3263602752778039,1.5041895878891007,0.5667058282109534,0.9994651892144514,1.8004584312438965,1.0
60,1,60,-1,-1,-2.388789077132232,2.0430366040953696,1.5041895878891007,0.5667058282109534,0.9994651892144514,2.453477144241333,1.0
61,1,61,1,-1,-0.9539135254359852,0.4458804115987924,1.5041895878891007,0.5667058282109534,0.9994651892144514,7.652165412902832,1.0
62,1,62,-1,-1,-1.228156794344768,1.531476708421304,1.5041895878891007,0.5667058282109534,0.9994651892144514,2.193464994430542,1.0
63,1,63,1,1,1.6504123056762028,-0.8593792138172331,1.5041895878891007,0.5667058282109534,0.9994651892144514,2.6134846210479736,0.0
64,1,64,1,1,-0.14994893040037405,-0.06585259926276082,1.5041895878891007,0.5667058282109534,0.9994651892144514,2.0954604148864746,0.0
65,1,65,-1,-1,-1.1464884833145836,1.4954806110439844,1.5041895878891007,0.5667058282109534,0.9994651892144514,2.2454674243927,1.0
66,1,66,1,1,0.0011564368260937874,-0.13245375023929143,1.5041895878891007,0.5667058282109534,0.9994651892144514,2.5544817447662354,0.0
67,1,67,-1,1,0.14369742441418398,0.7694408574831448,1.5041895878891007,0.5667058282109534,0.9994651892144514,6.337260723114014,1.0
68,1,68,-1,1,1.7067786624712542,0.08049769526973483,1.5041895878891007,0.5667058282109534,0.9994651892144514,3.3814749717712402,0.0
69,1,69,1,1,1.7983597072503499,-0.9245884609120594,1.5041895878891007,0.5667058282109534,0.9994651892144514,2.1324620246887207,1.0
70,1,70,-1,1,1.3480115053844441,0.2386277870933292,1.5041895878891007,0.5667058282109534,0.9994651892144514,2.435476303100586,1.0
71,1,71,1,-1,-0.006806635535329009,0.028433896475026234,1.5041895878891007,0.5667058282109534,0.9994651892144514,3.0394997596740723,1.0
72,1,72,-1,-1,0.15094724335221987,0.9236232753308645,1.5041895878891007,0.5667058282109534,0.9994651892144514,2.8164939880371094,1.0
73,1,73,1,1,1.3831062472965032,-0.7415614851828443,1.5041895878891007,0.5667058282109534,0.9994651892144514,2.8124938011169434,0.0
74,1,74,1,1,0.23672184678760566,-0.23628148132300164,1.5041895878891007,0.5667058282109534,0.9994651892144514,3.3174796104431152,1.0
75,1,75,1,1,-0.6717538054681613,0.1641379424536954,1.5041895878891007,0.5667058282109534,0.9994651892144514,3.175489902496338,0.0
76,1,76,-1,1,-0.9142037383838626,1.23572101916769,1.5041895878891007,0.5667058282109534,0.9994651892144514,1.986456036567688,1.0
77,1,77,-1,1,0.6529979649819553,0.5449617220468403,1.5041895878891007,0.5667058282109534,0.9994651892144514,3.404473304748535,1.0
78,1,78,1,1,-0.10170786425984679,-0.08711531539433763,1.5041895878891007,0.5667058282109534,0.9994651892144514,2.418475389480591,0.0
79,1,79,1,1,0.457094049586772,-0.3334126595137856,1.5041895878891007,0.5667058282109534,0.9994651892144514,2.735490322113037,1.0
80,1,80,-1,1,1.5554040979937667,0.1472174975363335,1.5041895878891007,0.5667058282109534,0.9994651892144514,2.8634963035583496,0.0
81,1,81,1,-1,0.9347162985056621,-0.386551436136947,1.5041895878891007,0.5667058282109534,0.9994651892144514,2.5434813499450684,1.0
82,1,82,-1,1,0.030663224629913,0.8192617734672919,1.5041895878891007,0.5667058282109534,0.9994651892144514,3.367475986480713,0.0
83,1,83,1,1,1.965458620679358,-0.9982389219484309,1.5041895878891007,0.5667058282109534,0.9994651892144514,1.942456603050232,0.0
84,1,84,1,1,2.6240431805426208,-1.2885164316581064,1.5041895878891007,0.5667058282109534,0.9994651892144514,1.9534564018249512,0.0
85,1,85,1,1,1.0637299206463262,-0.6007932825704333,1.5041895878891007,0.5667058282109534,0.9994651892144514,2.0384576320648193,1.0
86,1,86,-1,1,1.2007297093507667,0.30354366211338846,1.5041895878891007,0.5667058282109534,0.9994651892144514,1.4404630661010742,1.0
87,1,87,-1,1,1.5537238979851862,0.1479580619285601,1.5041895878891007,0.5667058282109534,0.9994651892144514,2.760491371154785,1.0
88,1,88,-1,-1,-1.1666739918756637,1.5043775690269503,1.5041895878891007,0.5667058282109534,0.9994651892144514,1.6414604187011719,1.0
89,1,89,-1,1,-1.7800209748140166,1.6173383338931364,1.5041895878891007,0.5667058282109534,0.9994651892144514,1.4384630918502808,1.0
90,1,90,-1,1,2.8559943993469314,-0.42603024745747187,1.5041895878891007,0.5667058282109534,0.9994651892144514,2.5174801349639893,0.0
91,1,91,1,1,1.2958417398898763,-0.7030988101676625,1.5041895878891007,0.5667058282109534,0.9994651892144514,1.5204620361328125,0.0
92,1,92,-1,-1,-1.61451079087408,1.7017659663446816,1.5041895878891007,0.5667058282109534,0.9994651892144514,1.5464617013931274,1.0
93,1,93,1,-1,-0.3998697158256037,0.20168024790659406,1.5041895878891007,0.5667058282109534,0.9994651892144514,2.181464433670044,1.0
94,1,94,1,1,1.8616625770279054,-0.9524898125628174,1.5041895878891007,0.5667058282109534,0.9994651892144514,2.3144705295562744,0.0
95,1,95,1,-1,-1.3846917205985994,0.6357500644114769,1.5041895878891007,0.5667058282109534,0.9994651892144514,2.208465576171875,0.0
96,1,96,1,-1,-0.9639624783526701,0.45030958471583404,1.5041895878891007,0.5667058282109534,0.9994651892144514,7.377185344696045,1.0
97,1,97,-1,1,0.8637579673103516,0.4520672141115276,1.5041895878891007,0.5667058282109534,0.9994651892144514,1.91245698928833,1.0
98,1,98,-1,1,1.2619162027488982,0.276575123805772,1.5041895878891007,0.5667058282109534,0.9994651892144514,5.228341102600098,1.0
99,1,99,1,-1,0.06240973886168999,-0.0020738894883598133,1.5041895878891007,0.5667058282109534,0.9994651892144514,5.2963361740112305,0.0
100,1,100,1,-1,-1.1854618047390026,0.5479375535208493,1.5041895878891007,0.5667058282109534,0.9994651892144514,3.2254862785339355,1.0
101,1,101,-1,-1,-1.3611793579961655,1.5901076889592343,1.5041895878891007,0.5667058282109534,0.9994651892144514,2.5974838733673096,1.0
102,1,102,1,1,0.8454791258110133,-0.5045971354422565,1.5041895878891007,0.5667058282109534,0.9994651892144514,1.9764561653137207,0.0
103,1,103,1,-1,-2.53108048437569,1.1410319914239448,1.5041895878891007,0.5667058282109534,0.9994651892144514,1.3884637355804443,1.0
104,1,104,-1,1,2.198430294957999,-0.13620251336039146,1.5041895878891007,0.5667058282109534,0.9994651892144514,1.9974558353424072,1.0
105,1,105,1,1,0.14977319083728313,-0.19795802088976092,1.5041895878891007,0.5667058282109534,0.9994651892144514,1.290464997291565,1.0
106,1,106,-1,-1,-0.5861339591328589,1.2484989389139955,1.5041895878891007,0.5667058282109534,0.9994651892144514,3.793445110321045,1.0
107,1,107,1,-1,-2.025153384823515,0.9180397327181897,1.5041895878891007,0.5667058282109534,0.9994651892144514,1.8404579162597656,1.0
108,1,108,-1,-1,-2.256749913108731,1.9848390664475888,1.5041895878891007,0.5667058282109534,0.9994651892144514,1.6554603576660156,1.0
109,1,109,-1,-1,-0.601983675512448,1.2554848545893145,1.5041895878891007,0.5667058282109534,0.9994651892144514,1.6264606714248657,1.0
110,1,110,-1,1,1.7291446341222692,0.07063967710659758,1.5041895878891007,0.5667058282109534,0.9994651892144514,2.422475576400757,1.0
111,1,111,1,-1,-1.3695517153892813,0.6290769607935226,1.5041895878891007,0.5667058282109534,0.9994651892144514,5.600314140319824,1.0
112,1,112,1,1,2.3106031643199234,-1.1503647152386152,1.5041895878891007,0.5667058282109534,0.9994651892144514,4.469396114349365,0.0
113,1,113,-1,-1,-1.621038826596756,1.7046432611802418,1.5041895878891007,0.5667058282109534,0.9994651892144514,2.3704731464385986,1.0
114,1,114,1,-1,-0.9641123132794458,0.45037562590790364,1.5041895878891007,0.5667058282109534,0.9994651892144514,4.269410610198975,1.0
115,1,115,1,-1,-0.1282689425754422,0.08196958218638936,1.5041895878891007,0.5667058282109534,0.9994651892144514,3.603458881378174,1.0
116,1,116,1,-1,-1.5931694638741405,0.727638644612145,1.5041895878891007,0.5667058282109534,0.9994651892144514,1.9314568042755127,1.0
117,1,117,-1,-1,-1.5857616593298864,1.6890945087680007,1.5041895878891007,0.5667058282109534,0.9994651892144514,1.4384630918502808,1.0
118,1,118,-1,-1,-1.4135016876350757,1.613169261421463,1.5041895878891007,0.5667058282109534,0.9994651892144514,1.4194632768630981,1.0
119,1,119,-1,-1,0.6810860410741895,0.6899594766606294,1.5041895878891007,0.5667058282109534,0.9994651892144514,2.674487352371216,1.0
120,1,120,1,1,-1.171205310780321,0.38427602041419856,1.5041895878891007,0.5667058282109534,0.9994651892144514,3.024500846862793,1.0
121,1,121,1,1,1.3580031065123306,-0.7304970332706495,1.5041895878891007,0.5667058282109534,0.9994651892144514,2.425475835800171,0.0
122,1,122,1,1,-0.18782893622012042,-0.04915662060297117,1.5041895878891007,0.5667058282109534,0.9994651892144514,5.269338130950928,0.0
123,1,123,1,1,2.4282792577856966,-1.202231590724885,1.5041895878891007,0.5667058282109534,0.9994651892144514,1.5044622421264648,0.0
124,1,124,1,-1,-0.9812190612261047,0.45791559039510366,1.5041895878891007,0.5667058282109534,0.9994651892144514,2.1004605293273926,1.0
125,1,125,1,1,2.0500326030168,-1.035515722036547,1.5041895878891007,0.5667058282109534,0.9994651892144514,4.5693888664245605,0.0
126,1,126,1,1,1.0078298979458893,-0.5761548073143992,1.5041895878891007,0.5667058282109534,0.9994651892144514,3.9494338035583496,0.0
127,1,127,-1,1,1.6835829750391718,0.0907214186822407,1.5041895878891007,0.5667058282109534,0.9994651892144514,1.6764600276947021,1.0
128,1,128,-1,-1,-0.7192301497612961,1.3071623712536309,1.5041895878891007,0.5667058282109534,0.9994651892144514,2.8244943618774414,1.0
129,1,129,1,-1,-0.809972880263514,0.382437181111664,1.5041895878891007,0.5667058282109534,0.9994651892144514,2.3324713706970215,1.0
130,1,130,1,-1,-0.9218389733537424,0.4317432427811393,1.5041895878891007,0.5667058282109534,0.9994651892144514,2.3584725856781006,1.0
131,1,131,1,-1,-0.6982375373126881,0.33318874882977695,1.5041895878891007,0.5667058282109534,0.9994651892144514,1.28746497631073,1.0
132,1,132,-1,-1,-0.0490973990629594,1.0117948848248635,1.5041895878891007,0.5667058282109534,0.9994651892144514,2.8034934997558594,1.0
133,1,133,-1,-1,-1.5110335299935522,1.6561573635462583,1.5041895878891007,0.5667058282109534,0.9994651892144514,1.3004648685455322,1.0
134,1,134,-1,1,0.44761577787450924,0.6354859059491386,1.5041895878891007,0.5667058282109534,0.9994651892144514,3.8684396743774414,1.0
135,1,135,1,1,1.4386565397990494,-0.766045813474159,1.5041895878891007,0.5667058282109534,0.9994651892144514,3.2094874382019043,0.0
136,1,136,-1,-1,-1.095320503984445,1.4729278296366695,1.5041895878891007,0.5667058282109534,0.9994651892144514,2.0614588260650635,1.0
137,1,137,-1,1,0.5600322917434597,0.5859372410018502,1.5041895878891007,0.5667058282109534,0.9994651892144514,1.679460048675537,0.0
138,1,138,1,-1,-1.5130865711038226,0.6923413356552796,1.5041895878891007,0.5667058282109534,0.9994651892144514,1.4584628343582153,1.0
139,1,139,-1,1,0.939398579915004,0.41872788307049696,1.5041895878891007,0.5667058282109534,0.9994651892144514,1.5274620056152344,1.0
140,1,140,-1,-1,-2.207761456047731,1.9632469305445865,1.5041895878891007,0.5667058282109534,0.9994651892144514,2.0174567699432373,1.0
141,1,141,-1,1,2.1891206618785426,-0.1320992026068315,1.5041895878891007,0.5667058282109534,0.9994651892144514,6.636239051818848,1.0
142,1,142,-1,1,2.8590963686174256,-0.42739747039270426,1.5041895878891007,0.5667058282109534,0.9994651892144514,2.168463706970215,0.0
143,1,143,-1,1,0.8817927543608545,0.4441182074201907,1.5041895878891007,0.5667058282109534,0.9994651892144514,2.0124564170837402,1.0
144,1,144,1,-1,-1.9440629083388963,0.8822983215013624,1.5041895878891007,0.5667058282109534,0.9994651892144514,2.0554585456848145,1.0
145,1,145,-1,-1,-2.215584612428646,1.966695062327076,1.5041895878891007,0.5667058282109534,0.9994651892144514,2.490478754043579,1.0
146,1,146,1,-1,-1.91790660364663,0.8707696774182777,1.5041895878891007,0.5667058282109534,0.9994651892144514,1.9114570617675781,1.0
147,1,147,-1,1,1.2898683820611427,0.26425493062753946,1.5041895878891007,0.5667058282109534,0.9994651892144514,5.52131986618042,0.0
148,1,148,1,1,0.6612832585303156,-0.42341102676069853,1.5041895878891007,0.5667058282109534,0.9994651892144514,1.5504616498947144,0.0
149,1,149,1,-1,-0.5269009198033319,0.25767047876431826,1.5041895878891007,0.5667058282109534,0.9994651892144514,2.182464361190796,1.0
150,1,150,1,1,0.41543322366328406,-0.3150502478531946,1.5041895878891007,0.5667058282109534,0.9994651892144514,6.0632805824279785,1.0
151,1,151,1,1,0.6078529217779477,-0.39986108945477866,1.5041895878891007,0.5667058282109534,0.9994651892144514,1.633460521697998,0.0
152,1,152,1,-1,0.1774579489926038,-0.052782499997374624,1.5041895878891007,0.5667058282109534,0.9994651892144514,2.668487071990967,0.0
153,1,153,-1,1,1.4760436026104764,0.18219640286319183,1.5041895878891007,0.5667058282109534,0.9994651892144514,2.913498640060425,1.0
154,1,154,-1,1,1.6946270384088669,0.08585364101570003,1.5041895878891007,0.5667058282109534,0.9994651892144514,1.5264619588851929,1.0
155,1,155,1,-1,-2.179657607472952,0.9861389620709392,1.5041895878891007,0.5667058282109534,0.9994651892144514,1.42646324634552,1.0
156,1,156,-1,-1,-2.280628987999384,1.9953639994871195,1.5041895878891007,0.5667058282109534,0.9994651892144514,1.5354619026184082,1.0
157,1,157,-1,1,1.0176963091205768,0.3842174022076673,1.5041895878891007,0.5667058282109534,0.9994651892144514,2.419475555419922,1.0
158,1,158,-1,1,0.8329118790450573,0.46566292562926126,1.5041895878891007,0.5667058282109534,0.9994651892144514,5.3813300132751465,1.0
159,1,159,-1,1,-0.15265310924428666,0.9000602192996058,1.5041895878891007,0.5667058282109534,0.9994651892144514,1.614460825920105,0.0
160,1,160,1,1,0.5530238623447568,-0.37569465160920434,1.5041895878891007,0.5667058282109534,0.9994651892144514,1.780458688735962,0.0
161,1,161,-1,-1,-2.462835279274333,2.0756731833157067,1.5041895878891007,0.5667058282109534,0.9994651892144514,1.3924636840820312,1.0
162,1,162,1,-1,-0.5989699161954272,0.289435585441457,1.5041895878891007,0.5667058282109534,0.9994651892144514,2.6404857635498047,1.0
163,1,163,-1,1,1.26954425781881,0.27321298481168144,1.5041895878891007,0.5667058282109534,0.9994651892144514,2.9124984741210938,1.0
164,1,164,-1,1,0.10973389895890628,0.7844106095711167,1.5041895878891007,0.5667058282109534,0.9994651892144514,1.8994572162628174,1.0
165,1,165,-1,-1,0.7110229148268981,0.6767645102265037,1.5041895878891007,0.5667058282109534,0.9994651892144514,1.8974571228027344,1.0
166,1,166,1,-1,-0.38186315910660884,0.19374368400670383,1.5041895878891007,0.5667058282109534,0.9994651892144514,2.1374623775482178,1.0
167,1,167,1,-1,-1.5169659256296022,0.694051198654889,1.5041895878891007,0.5667058282109534,0.9994651892144514,1.7224594354629517,1.0
168,1,168,1,-1,-1.847818347127223,0.8398776009830656,1.5041895878891007,0.5667058282109534,0.9994651892144514,2.8304946422576904,1.0
169,1,169,-1,-1,-0.7300041950238026,1.311911135829814,1.5041895878891007,0.5667058282109534,0.9994651892144514,2.0344574451446533,1.0
170,1,170,1,-1,-2.0713058481980045,0.9383818769951454,1.5041895878891007,0.5667058282109534,0.9994651892144514,3.4874672889709473,1.0
171,1,171,-1,-1,-1.7862986824687612,1.7774831398246265,1.5041895878891007,0.5667058282109534,0.9994651892144514,2.3654730319976807,1.0
172,1,172,1,1,1.9221678356337928,-0.9791580900518972,1.5041895878891007,0.5667058282109534,0.9994651892144514,3.5084657669067383,0.0
173,1,173,1,-1,0.2879350755296326,-0.10147636123473448,1.5041895878891007,0.5667058282109534,0.9994651892144514,1.2774651050567627,1.0
174,1,174,1,-1,0.5527102908591763,-0.2181785963352061,1.5041895878891007,0.5667058282109534,0.9994651892144514,4.532391548156738,1.0
175,1,175,-1,1,0.5553076210886965,0.5880196852549433,1.5041895878891007,0.5667058282109534,0.9994651892144514,1.725459337234497,1.0
176,1,176,-1,1,2.1902955996149007,-0.13261706776942317,1.5041895878891007,0.5667058282109534,0.9994651892144514,2.5844831466674805,1.0
177,1,177,1,1,0.8420117843629332,-0.5030688711885807,1.5041895878891007,0.5667058282109534,0.9994651892144514,2.3754734992980957,1.0
178,1,178,1,1,1.4250478972965228,-0.7600476727692163,1.5041895878891007,0.5667058282109534,0.9994651892144514,1.7414591312408447,0.0
179,1,179,-1,-1,-1.3351607200962996,1.5786397228453932,1.5041895878891007,0.5667058282109534,0.9994651892144514,1.7944585084915161,1.0
180,1,180,1,1,0.04429146774682968,-0.1514659320000068,1.5041895878891007,0.5667058282109534,0.9994651892144514,1.9244568347930908,0.0
181,1,181,1,-1,-0.9343076757409436,0.4372389438631982,1.5041895878891007,0.5667058282109534,0.9994651892144514,1.5604615211486816,1.0
182,1,182,1,1,0.022743716593685015,-0.1419685524290717,1.5041895878891007,0.5667058282109534,0.9994651892144514,1.6524603366851807,1.0
183,1,183,1,-1,-1.2358992548850727,0.5701683471300206,1.5041895878891007,0.5667058282109534,0.9994651892144514,2.216465950012207,1.0
184,1,184,1,1,1.3403631612972382,-0.7227220569342543,1.5041895878891007,0.5667058282109534,0.9994651892144514,3.6354565620422363,0.0
185,1,185,1,1,3.0895879530126984,-1.4937097894237807,1.5041895878891007,0.5667058282109534,0.9994651892144514,2.0194568634033203,0.0
186,1,186,-1,-1,-0.2767174321548238,1.1121206142644644,1.5041895878891007,0.5667058282109534,0.9994651892144514,2.958500623703003,1.0
187,1,187,1,1,-0.1489008654489523,-0.06631454401921831,1.5041895878891007,0.5667058282109534,0.9994651892144514,5.506320953369141,0.0
188,1,188,-1,1,-0.03602044624673306,0.8486532458765318,1.5041895878891007,0.5667058282109534,0.9994651892144514,5.494321823120117,0.0
189,1,189,-1,-1,-1.811170917402037,1.788445817751428,1.5041895878891007,0.5667058282109534,0.9994651892144514,1.5094621181488037,1.0
190,1,190,1,-1,-0.05325800136813541,0.04890778489925485,1.5041895878891007,0.5667058282109534,0.9994651892144514,2.215466022491455,0.0
191,1,191,-1,-1,-0.44606096815648777,1.1867604143930914,1.5041895878891007,0.5667058282109534,0.9994651892144514,2.759491443634033,1.0
192,1,192,-1,1,2.3303194153355467,-0.19433391782110776,1.5041895878891007,0.5667058282109534,0.9994651892144514,4.099422931671143,0.0
193,1,193,1,-1,-1.2884853337999986,0.5933461696346819,1.5041895878891007,0.5667058282109534,0.9994651892144514,2.3324713706970215,1.0
194,1,194,-1,-1,-2.868170521436681,2.2543286086978074,1.5041895878891007,0.5667058282109534,0.9994651892144514,1.4554628133773804,1.0
195,1,195,-1,1,0.4936048823760102,0.6152157636742492,1.5041895878891007,0.5667058282109534,0.9994651892144514,2.0584585666656494,1.0
196,1,196,-1,1,0.33005042503400683,0.6873039714345575,1.5041895878891007,0.5667058282109534,0.9994651892144514,2.0234570503234863,1.0
197,1,197,1,1,1.1697913544136225,-0.6475408845436721,1.5041895878891007,0.5667058282109534,0.9994651892144514,1.6254606246948242,0.0
198,1,198,-1,1,0.9559092622272808,0.411450640272381,1.5041895878891007,0.5667058282109534,0.9994651892144514,4.7833733558654785,1.0
199,1,199,-1,-1,-2.1421981521590183,1.9343492707131662,1.5041895878891007,0.5667058282109534,0.9994651892144514,1.6714601516723633,1.0
200,1,200,-1,1,1.4014696252438417,0.21506560411447362,1.5041895878891007,0.5667058282109534,0.9994651892144514,1.8164582252502441,0.0
201,1,201,1,-1,-0.35156076794158797,0.18038761224052546,1.5041895878891007,0.5667058282109534,0.9994651892144514,2.175464153289795,0.0
202,1,202,-1,-1,-1.4418414441244234,1.6256602829862783,1.5041895878891007,0.5667058282109534,0.9994651892144514,1.422463297843933,1.0
203,1,203,-1,1,1.008984379222817,0.38805726950733804,1.5041895878891007,0.5667058282109534,0.9994651892144514,3.319479465484619,1.0
204,1,204,1,-1,-2.2662989194574426,1.0243269576808858,1.5041895878891007,0.5667058282109534,0.9994651892144514,1.2954648733139038,1.0
205,1,205,-1,1,-0.4043191326122135,1.0109844513480255,1.5041895878891007,0.5667058282109534,0.9994651892144514,3.646455764770508,1.0
206,1,206,-1,-1,1.00369109739394,0.5477681802420045,1.5041895878891007,0.5667058282109534,0.9994651892144514,2.749490976333618,1.0
207,1,207,1,-1,-2.5540934053245077,1.1511751587425887,1.5041895878891007,0.5667058282109534,0.9994651892144514,1.4804625511169434,1.0
208,1,208,-1,1,2.573851828315558,-0.30167318248304154,1.5041895878891007,0.5667058282109534,0.9994651892144514,1.449462890625,1.0
209,1,209,1,1,0.27293151665758797,-0.25224124326982017,1.5041895878891007,0.5667058282109534,0.9994651892144514,3.368475914001465,1.0
210,1,210,-1,-1,-2.784720301839704,2.2175471178982575,1.5041895878891007,0.5667058282109534,0.9994651892144514,2.3884739875793457,1.0
211,1,211,1,-1,-2.982559933923632,1.3400259221761046,1.5041895878891007,0.5667058282109534,0.9994651892144514,1.9284567832946777,1.0
212,1,212,1,1,0.5796823735703274,-0.3874446480754633,1.5041895878891007,0.5667058282109534,0.9994651892144514,4.235413074493408,0.0
213,1,213,-1,1,-0.3266194877870181,0.9767375819560876,1.5041895878891007,0.5667058282109534,0.9994651892144514,1.6984597444534302,1.0
214,1,214,1,1,0.44092712568802717,-0.3262869315587181,1.5041895878891007,0.5667058282109534,0.9994651892144514,1.6704601049423218,1.0
215,1,215,1,1,0.7004026484700481,-0.4406532759495118,1.5041895878891007,0.5667058282109534,0.9994651892144514,3.85744047164917,1.0
216,1,216,-1,1,1.0415846778309454,0.37368837282727607,1.5041895878891007,0.5667058282109534,0.9994651892144514,1.7164595127105713,1.0
217,1,217,1,-1,-0.3860858605382754,0.19560488047339014,1.5041895878891007,0.5667058282109534,0.9994651892144514,2.514479875564575,1.0
218,1,218,1,1,2.7987884286260916,-1.365537088592124,1.5041895878891007,0.5667058282109534,0.9994651892144514,2.0824596881866455,1.0
219,1,219,1,-1,-1.2741459118159484,0.5870259308105733,1.5041895878891007,0.5667058282109534,0.9994651892144514,2.188464641571045,0.0
220,1,220,1,1,1.942713111516286,-0.9882136189587798,1.5041895878891007,0.5667058282109534,0.9994651892144514,3.1444921493530273,0.0
221,1,221,-1,-1,-0.7985247968361456,1.342112253302147,1.5041895878891007,0.5667058282109534,0.9994651892144514,4.0584259033203125,1.0
222,1,222,-1,1,1.8017622633420407,0.03863275520834897,1.5041895878891007,0.5667058282109534,0.9994651892144514,6.3842573165893555,1.0
223,1,223,-1,-1,0.49843494900907315,0.7704647107363003,1.5041895878891007,0.5667058282109534,0.9994651892144514,1.592461109161377,1.0
224,1,224,-1,1,2.2879812312930423,-0.1756729540231715,1.5041895878891007,0.5667058282109534,0.9994651892144514,5.375330448150635,0.0
225,1,225,1,-1,1.2491004583336047,-0.5251192929752111,1.5041895878891007,0.5667058282109534,0.9994651892144514,2.0984604358673096,0.0
226,1,226,-1,1,2.869150084791078,-0.43182874296128937,1.5041895878891007,0.5667058282109534,0.9994651892144514,3.513465404510498,0.0
227,1,227,1,1,-1.0392496692666624,0.32611529611984175,1.5041895878891007,0.5667058282109534,0.9994651892144514,2.6424858570098877,1.0
228,1,228,-1,1,0.3939844786454567,0.6591244194088772,1.5041895878891007,0.5667058282109534,0.9994651892144514,1.547461748123169,0.0
229,1,229,-1,1,0.8954090705027933,0.43811668448451435,1.5041895878891007,0.5667058282109534,0.9994651892144514,1.5694613456726074,0.0
230,1,230,-1,1,0.5474782047015023,0.5914705761957006,1.5041895878891007,0.5667058282109534,0.9994651892144514,1.7434592247009277,1.0
231,1,231,1,1,1.9780494058580778,-1.0037884322007318,1.5041895878891007,0.5667058282109534,0.9994651892144514,1.5654613971710205,0.0
232,1,232,-1,-1,-0.5621443958362929,1.2379253070417338,1.5041895878891007,0.5667058282109534,0.9994651892144514,1.3884637355804443,1.0
233,1,233,1,-1,-1.0017896208206283,0.46698226334242043,1.5041895878891007,0.5667058282109534,0.9994651892144514,1.990455985069275,1.0
234,1,234,1,1,-0.11482050741109684,-0.0813357911971005,1.5041895878891007,0.5667058282109534,0.9994651892144514,1.683459997177124,1.0
235,1,235,1,1,-0.9407575634479264,0.28270394859438425,1.5041895878891007,0.5667058282109534,0.9994651892144514,4.056426048278809,1.0
236,1,236,-1,1,1.4613481999678604,0.1886735436029705,1.5041895878891007,0.5667058282109534,0.9994651892144514,3.1864891052246094,1.0
237,1,237,1,1,-0.6878130553151784,0.17121621202983833,1.5041895878891007,0.5667058282109534,0.9994651892144514,2.6474862098693848,1.0
238,1,238,-1,1,1.5900917195515016,0.13192859309311133,1.5041895878891007,0.5667058282109534,0.9994651892144514,6.317262172698975,1.0
239,1,239,1,1,1.6744346614156977,-0.8699672992756415,1.5041895878891007,0.5667058282109534,0.9994651892144514,1.9584563970565796,0.0
240,1,240,-1,-1,-3.1015869261625255,2.3572091449546417,1.5041895878891007,0.5667058282109534,0.9994651892144514,1.5974609851837158,1.0
241,1,241,-1,1,1.2240254174674907,0.2932758536174679,1.5041895878891007,0.5667058282109534,0.9994651892144514,2.738490343093872,0.0
242,1,242,1,1,0.810435538305932,-0.48915133556747636,1.5041895878891007,0.5667058282109534,0.9994651892144514,2.971501350402832,0.0
243,1,243,-1,-1,-1.7172021582053567,1.7470281789659334,1.5041895878891007,0.5667058282109534,0.9994651892144514,1.3224645853042603,1.0
244,1,244,1,1,3.1499725282418423,-1.5203248745482054,1.5041895878891007,0.5667058282109534,0.9994651892144514,2.5884833335876465,0.0
245,1,245,-1,1,1.548849878926541,0.15010633293405518,1.5041895878891007,0.5667058282109534,0.9994651892144514,7.419182300567627,0.0
246,1,246,1,1,0.4302899106278997,-0.3215984762166415,1.5041895878891007,0.5667058282109534,0.9994651892144514,1.4354630708694458,1.0
247,1,247,-1,-1,0.5790096798715814,0.7349506193868882,1.5041895878891007,0.5667058282109534,0.9994651892144514,3.1004953384399414,0.0
248,1,248,1,1,-0.03353758348349056,-0.11716202548435031,1.5041895878891007,0.5667058282109534,0.9994651892144514,1.5904611349105835,1.0
249,1,249,1,1,2.3464651545549238,-1.166171234026134,1.5041895878891007,0.5667058282109534,0.9994651892144514,1.7374591827392578,0.0
250,1,250,-1,1,1.1203584439554763,0.33896807409171387,1.5041895878891007,0.5667058282109534,0.9994651892144514,3.173490047454834,0.0
251,1,251,-1,1,1.8269484553844095,0.027531697651447917,1.5041895878891007,0.5667058282109534,0.9994651892144514,1.8664575815200806,1.0
252,1,252,1,-1,-2.097715416090822,0.950022149281558,1.5041895878891007,0.5667058282109534,0.9994651892144514,2.725489854812622,1.0
253,1,253,1,-1,-0.26858797604142626,0.14381655231249021,1.5041895878891007,0.5667058282109534,0.9994651892144514,1.9074571132659912,1.0
254,1,254,1,-1,-1.616085506998298,0.7377391120932854,1.5041895878891007,0.5667058282109534,0.9994651892144514,1.474462628364563,1.0
255,1,255,-1,1,1.7469676596799055,0.06278400633982961,1.5041895878891007,0.5667058282109534,0.9994651892144514,1.5424617528915405,0.0
256,1,256,1,1,1.4512353143897252,-0.7715900299437022,1.5041895878891007,0.5667058282109534,0.9994651892144514,1.4254631996154785,0.0
257,1,257,1,-1,-1.0644637382387048,0.4946064863141043,1.5041895878891007,0.5667058282109534,0.9994651892144514,1.96445631980896,1.0
258,1,258,1,-1,-1.550590755145587,0.7088716672342602,1.5041895878891007,0.5667058282109534,0.9994651892144514,1.9934558868408203,1.0
259,1,259,1,-1,-1.0352929264839574,0.48174916910925536,1.5041895878891007,0.5667058282109534,0.9994651892144514,1.198465347290039,1.0
260,1,260,1,-1,0.12068368325806733,-0.027758693674860314,1.5041895878891007,0.5667058282109534,0.9994651892144514,1.5584615468978882,1.0
261,1,261,1,1,0.30176753739043083,-0.26495099809614664,1.5041895878891007,0.5667058282109534,0.9994651892144514,1.6054608821868896,1.0
262,1,262,1,1,1.941255228354267,-0.9875710428652764,1.5041895878891007,0.5667058282109534,0.9994651892144514,3.275482654571533,0.0
263,1,263,1,1,-0.6752142169684165,0.1656631522658923,1.5041895878891007,0.5667058282109534,0.9994651892144514,2.6114845275878906,0.0
264,1,264,-1,-1,-1.757736716623391,1.7648941773385818,1.5041895878891007,0.5667058282109534,0.9994651892144514,1.662460207939148,1.0
265,1,265,-1,-1,-0.9669426864295358,1.4163440658303341,1.5041895878891007,0.5667058282109534,0.9994651892144514,1.3874636888504028,1.0
266,1,266,-1,1,0.6056571740510951,0.5658276331789653,1.5041895878891007,0.5667058282109534,0.9994651892144514,4.594387054443359,1.0
267,1,267,1,1,1.6876298875860478,-0.8757832227366782,1.5041895878891007,0.5667058282109534,0.9994651892144514,2.399474620819092,0.0
268,1,268,-1,1,1.258816655685854,0.27794127912966116,1.5041895878891007,0.5667058282109534,0.9994651892144514,4.813371181488037,1.0
269,1,269,1,-1,-0.9637047447169033,0.45019598612497985,1.5041895878891007,0.5667058282109534,0.9994651892144514,2.496479034423828,1.0
270,1,270,1,-1,-3.2152524306823365,1.4425873890001484,1.5041895878891007,0.5667058282109534,0.9994651892144514,1.4324631690979004,1.0
271,1,271,1,1,1.0934499539645746,-0.6138926744873967,1.5041895878891007,0.5667058282109534,0.9994651892144514,2.8144938945770264,0.0
272,1,272,1,1,2.219689449247439,-1.1102936166766098,1.5041895878891007,0.5667058282109534,0.9994651892144514,4.765374660491943,0.0
273,1,273,-1,-1,-1.2945511241779897,1.5607406509692918,1.5041895878891007,0.5667058282109534,0.9994651892144514,1.2554653882980347,1.0
274,1,274,1,-1,-1.0510263914460192,0.4886838458487768,1.5041895878891007,0.5667058282109534,0.9994651892144514,1.960456371307373,1.0
275,1,275,1,-1,-1.112461629564618,0.515762020795955,1.5041895878891007,0.5667058282109534,0.9994651892144514,1.7374591827392578,1.0
276,1,276,-1,-1,-1.4558274148511312,1.631824734752752,1.5041895878891007,0.5667058282109534,0.9994651892144514,2.984501838684082,1.0
277,1,277,-1,-1,0.13687071131644002,0.9298276428695493,1.5041895878891007,0.5667058282109534,0.9994651892144514,5.839296817779541,1.0
278,1,278,1,1,1.7771092551512055,-0.9152221187724483,1.5041895878891007,0.5667058282109534,0.9994651892144514,1.9804561138153076,0.0
279,1,279,1,1,1.6069384700128655,-0.8402177005918072,1.5041895878891007,0.5667058282109534,0.9994651892144514,2.1114611625671387,0.0
280,1,280,1,1,0.796353046225903,-0.4829443410816874,1.5041895878891007,0.5667058282109534,0.9994651892144514,2.447476863861084,1.0
281,1,281,1,1,1.1764885605144524,-0.650492742858366,1.5041895878891007,0.5667058282109534,0.9994651892144514,3.044499397277832,0.0
282,1,282,1,-1,0.09601250197196376,-0.016884632086151062,1.5041895878891007,0.5667058282109534,0.9994651892144514,6.36625862121582,0.0
283,1,283,1,1,0.8013217287113421,-0.48513433590742516,1.5041895878891007,0.5667058282109534,0.9994651892144514,4.371403217315674,0.0
284,1,284,1,-1,0.0529963974004406,0.0020751317367743403,1.5041895878891007,0.5667058282109534,0.9994651892144514,1.3274644613265991,1.0
285,1,285,-1,1,0.9522699832612238,0.41305468764881076,1.5041895878891007,0.5667058282109534,0.9994651892144514,1.820458173751831,1.0
286,1,286,-1,1,2.167132960226992,-0.1224079106017828,1.5041895878891007,0.5667058282109534,0.9994651892144514,1.9804561138153076,0.0
287,1,287,-1,1,2.524599048675194,-0.27996454384861524,1.5041895878891007,0.5667058282109534,0.9994651892144514,1.8704575300216675,0.0
288,1,288,-1,-1,-1.6188183964473124,1.7036645851323269,1.5041895878891007,0.5667058282109534,0.9994651892144514,2.5554819107055664,1.0
289,1,289,1,-1,-0.16946073802940587,0.10012526413455024,1.5041895878891007,0.5667058282109534,0.9994651892144514,2.993502378463745,0.0
290,1,290,1,1,1.1572998959924128,-0.6420351535196962,1.5041895878891007,0.5667058282109534,0.9994651892144514,2.230466604232788,1.0
291,1,291,1,1,1.4984439347203102,-0.7923976856063812,1.5041895878891007,0.5667058282109534,0.9994651892144514,3.4984664916992188,0.0
292,1,292,1,-1,-2.0467841274548357,0.9275736915852096,1.5041895878891007,0.5667058282109534,0.9994651892144514,2.196465015411377,1.0
293,1,293,-1,1,1.1514814140979825,0.32525032421064914,1.5041895878891007,0.5667058282109534,0.9994651892144514,2.237467050552368,1.0
294,1,294,-1,1,0.24133865073650485,0.7264045433191341,1.5041895878891007,0.5667058282109534,0.9994651892144514,4.346405029296875,1.0
295,1,295,1,-1,-2.3335085515432965,1.0539502525762838,1.5041895878891007,0.5667058282109534,0.9994651892144514,2.1344621181488037,1.0
296,1,296,1,1,0.42658408284343086,-0.31996509680532964,1.5041895878891007,0.5667058282109534,0.9994651892144514,1.982456088066101,1.0
297,1,297,1,1,1.3498233453530242,-0.726891724485645,1.5041895878891007,0.5667058282109534,0.9994651892144514,4.815371036529541,0.0
298,1,298,-1,-1,-1.2451146466287921,1.538951045706182,1.5041895878891007,0.5667058282109534,0.9994651892144514,1.493462324142456,1.0
299,1,299,-1,1,2.654795598571649,-0.33734993151178994,1.5041895878891007,0.5667058282109534,0.9994651892144514,2.747490882873535,1.0
300,1,300,-1,1,3.0050445771946763,-0.49172555385276706,1.5041895878891007,0.5667058282109534,0.9994651892144514,3.363476276397705,0.0
301,1,301,-1,-1,-0.0813312804823294,1.0260022795877082,1.5041895878891007,0.5667058282109534,0.9994651892144514,1.383463740348816,1.0
302,1,302,-1,-1,-1.8327590271953724,1.7979609857830767,1.5041895878891007,0.5667058282109534,0.9994651892144514,1.500462293624878,1.0
303,1,303,-1,1,0.5739185306758133,0.5798167469876054,1.5041895878891007,0.5667058282109534,0.9994651892144514,2.6344854831695557,1.0
304,1,304,1,-1,-0.5273881409190109,0.2578852261798462,1.5041895878891007,0.5667058282109534,0.9994651892144514,1.3394643068313599,1.0
305,1,305,-1,1,-0.5118940945416832,1.0583991554863716,1.5041895878891007,0.5667058282109534,0.9994651892144514,1.7594590187072754,1.0
306,1,306,1,1,1.8902783546769553,-0.965102493121403,1.5041895878891007,0.5667058282109534,0.9994651892144514,4.4213995933532715,0.0
307,1,307,1,1,1.1945218528082249,-0.6584410907212277,1.5041895878891007,0.5667058282109534,0.9994651892144514,1.9744561910629272,0.0
308,1,308,1,1,-0.6226696162939664,0.14250361169659093,1.5041895878891007,0.5667058282109534,0.9994651892144514,2.3264710903167725,1.0
309,1,309,1,1,3.0937270525523437,-1.4955341375485807,1.5041895878891007,0.5667058282109534,0.9994651892144514,1.7584589719772339,0.0
310,1,310,1,1,0.5983081097732523,-0.3956541213170117,1.5041895878891007,0.5667058282109534,0.9994651892144514,2.463477611541748,0.0
311,1,311,1,-1,-0.6298992033683312,0.30306796768180294,1.5041895878891007,0.5667058282109534,0.9994651892144514,2.9084982872009277,1.0
312,1,312,-1,-1,-3.213228711145731,2.406416340658101,1.5041895878891007,0.5667058282109534,0.9994651892144514,1.3504642248153687,1.0
313,1,313,-1,-1,-1.048483618065035,1.4522840195083766,1.5041895878891007,0.5667058282109534,0.9994651892144514,1.842457890510559,1.0
314,1,314,1,-1,-3.0385860127193927,1.3647199578744333,1.5041895878891007,0.5667058282109534,0.9994651892144514,1.238465428352356,1.0
315,1,315,1,-1,-1.5563276141319893,0.7114002432769085,1.5041895878891007,0.5667058282109534,0.9994651892144514,2.477478265762329,1.0
316,1,316,-1,1,1.633693055541659,0.11271088286640107,1.5041895878891007,0.5667058282109534,0.9994651892144514,3.347477436065674,1.0
317,1,317,-1,-1,-1.2587613526800907,1.5449659632881145,1.5041895878891007,0.5667058282109534,0.9994651892144514,1.231465458869934,1.0
318,1,318,1,-1,-1.216389119608581,0.5615690664494429,1.5041895878891007,0.5667058282109534,0.9994651892144514,1.7194595336914062,0.0
319,1,319,-1,1,-0.12127376441594873,0.8862294697980045,1.5041895878891007,0.5667058282109534,0.9994651892144514,4.406400680541992,1.0
320,1,320,1,1,0.5320152730228138,-0.3664349128261496,1.5041895878891007,0.5667058282109534,0.9994651892144514,2.5584819316864014,0.0
321,1,321,1,1,0.4529526534296251,-0.331587299132626,1.5041895878891007,0.5667058282109534,0.9994651892144514,2.3374717235565186,1.0
322,1,322,1,-1,-1.5463487470454116,0.7070019611668376,1.5041895878891007,0.5667058282109534,0.9994651892144514,1.4854624271392822,0.0
323,1,323,1,1,1.6619113977158106,-0.8644475497677035,1.5041895878891007,0.5667058282109534,0.9994651892144514,1.7534589767456055,1.0
324,1,324,1,1,0.7600036850897505,-0.4669230088592455,1.5041895878891007,0.5667058282109534,0.9994651892144514,2.475478172302246,0.0
325,1,325,1,-1,-1.448387260785549,0.6638244893401741,1.5041895878891007,0.5667058282109534,0.9994651892144514,1.6664601564407349,1.0
326,1,326,-1,-1,-1.8370159925424714,1.7998372844016366,1.5041895878891007,0.5667058282109534,0.9994651892144514,1.3014647960662842,1.0
327,1,327,1,-1,-1.5880852159819323,0.7253977132164815,1.5041895878891007,0.5667058282109534,0.9994651892144514,3.618457794189453,1.0
328,1,328,-1,-1,-0.5229871478492721,1.2206663715526955,1.5041895878891007,0.5667058282109534,0.9994651892144514,1.6544603109359741,1.0
329,1,329,1,-1,-1.6827027425494898,0.767101302490761,1.5041895878891007,0.5667058282109534,0.9994651892144514,2.679487705230713,1.0
330,1,330,1,-1,-0.49149422609733207,0.24206463632221065,1.5041895878891007,0.5667058282109534,0.9994651892144514,4.331406116485596,0.0
331,1,331,-1,-1,-1.9772906124666372,1.8616646788299425,1.5041895878891007,0.5667058282109534,0.9994651892144514,1.7524590492248535,1.0
332,1,332,1,-1,-1.0432765805818789,0.4852680418116601,1.5041895878891007,0.5667058282109534,0.9994651892144514,3.9754319190979004,1.0
333,1,333,1,1,2.470630179476879,-1.2208981687645801,1.5041895878891007,0.5667058282109534,0.9994651892144514,1.4564628601074219,0.0
334,1,334,-1,1,0.6235250669369811,0.557952186703647,1.5041895878891007,0.5667058282109534,0.9994651892144514,1.503462314605713,1.0
335,1,335,-1,-1,-1.9790700528192806,1.862448984362932,1.5041895878891007,0.5667058282109534,0.9994651892144514,1.8284580707550049,1.0
336,1,336,1,-1,-0.7819353632736634,0.3700793745272729,1.5041895878891007,0.5667058282109534,0.9994651892144514,4.7433762550354,1.0
337,1,337,1,-1,-0.14166943717854574,0.08787597969299729,1.5041895878891007,0.5667058282109534,0.9994651892144514,3.362476348876953,1.0
338,1,338,1,1,1.1471603807332382,-0.6375660641749543,1.5041895878891007,0.5667058282109534,0.9994651892144514,2.774492025375366,0.0
339,1,339,1,-1,-2.1320786103719938,0.9651680592671784,1.5041895878891007,0.5667058282109534,0.9994651892144514,1.3884637355804443,1.0
340,1,340,1,1,3.5065716961477396,-1.6774994041875853,1.5041895878891007,0.5667058282109534,0.9994651892144514,1.500462293624878,0.0
341,1,341,1,1,-0.903842074288236,0.26643308997417264,1.5041895878891007,0.5667058282109534,0.9994651892144514,6.976214408874512,1.0
342,1,342,-1,1,-0.979533682547264,1.264515823444853,1.5041895878891007,0.5667058282109534,0.9994651892144514,1.545461654663086,1.0
343,1,343,-1,-1,-1.6130007782846314,1.7011004137022292,1.5041895878891007,0.5667058282109534,0.9994651892144514,1.5784612894058228,1.0
344,1,344,1,-1,-0.5410582899649061,0.2639104764882143,1.5041895878891007,0.5667058282109534,0.9994651892144514,2.428475856781006,1.0
345,1,345,-1,-1,-1.1030024901056272,1.476313739262829,1.5041895878891007,0.5667058282109534,0.9994651892144514,1.5654613971710205,1.0
346,1,346,-1,-1,0.08561504365784378,0.9524190737551036,1.5041895878891007,0.5667058282109534,0.9994651892144514,2.758491277694702,1.0
347,1,347,1,-1,0.6757429525168828,-0.27240643102110745,1.5041895878891007,0.5667058282109534,0.9994651892144514,3.6054587364196777,0.0
348,1,348,-1,-1,0.6692150337628546,0.6951917378615222,1.5041895878891007,0.5667058282109534,0.9994651892144514,1.2534654140472412,1.0
349,1,349,1,1,-0.27541289472290553,-0.010553144429793715,1.5041895878891007,0.5667058282109534,0.9994651892144514,1.7684588432312012,0.0
350,1,350,-1,-1,-1.8573447987025902,1.8087974021862916,1.5041895878891007,0.5667058282109534,0.9994651892144514,1.7474591732025146,1.0
351,1,351,1,-1,0.12457828139090799,-0.029475275441605137,1.5041895878891007,0.5667058282109534,0.9994651892144514,2.7994933128356934,1.0
352,1,352,-1,1,0.2006137551282008,0.7443544346479247,1.5041895878891007,0.5667058282109534,0.9994651892144514,3.5904598236083984,1.0
353,1,353,-1,-1,-1.0190537470490282,1.439312519430426,1.5041895878891007,0.5667058282109534,0.9994651892144514,2.1184613704681396,1.0
354,1,354,1,1,0.8787486395397996,-0.5192609951544385,1.5041895878891007,0.5667058282109534,0.9994651892144514,3.0714974403381348,1.0
355,1,355,-1,1,0.8884957277834609,0.44116380710268505,1.5041895878891007,0.5667058282109534,0.9994651892144514,1.8704575300216675,1.0
356,1,356,-1,1,-0.2181746098409627,0.9289394539260493,1.5041895878891007,0.5667058282109534,0.9994651892144514,1.8814573287963867,1.0
357,1,357,1,-1,-2.168714128500711,0.9813155179496833,1.5041895878891007,0.5667058282109534,0.9994651892144514,2.1204614639282227,1.0
358,1,358,-1,-1,-0.6986797814511005,1.2981045978100223,1.5041895878891007,0.5667058282109534,0.9994651892144514,1.570461392402649,1.0
359,1,359,1,1,1.6531684257371264,-0.8605940003708565,1.5041895878891007,0.5667058282109534,0.9994651892144514,2.5324807167053223,0.0
360,1,360,1,1,0.31375232205580383,-0.2702334077654433,1.5041895878891007,0.5667058282109534,0.9994651892144514,2.939499855041504,1.0
361,1,361,-1,1,1.0243038283624322,0.38130507424285326,1.5041895878891007,0.5667058282109534,0.9994651892144514,5.0833516120910645,1.0
362,1,362,-1,-1,-0.6785256464922164,1.289221468045437,1.5041895878891007,0.5667058282109534,0.9994651892144514,2.724489688873291,1.0
363,1,363,1,1,-0.16606227281126973,-0.05875048786630595,1.5041895878891007,0.5667058282109534,0.9994651892144514,1.7014596462249756,1.0
364,1,364,1,-1,-0.8421743394132645,0.39663028544582596,1.5041895878891007,0.5667058282109534,0.9994651892144514,1.3994635343551636,1.0
365,1,365,-1,1,0.01958980927355536,0.8241424883056291,1.5041895878891007,0.5667058282109534,0.9994651892144514,2.7934930324554443,1.0
366,1,366,-1,-1,-2.538449144041561,2.109000724988886,1.5041895878891007,0.5667058282109534,0.9994651892144514,1.3004648685455322,1.0
367,1,367,1,-1,-2.343190962168892,1.0582178686360466,1.5041895878891007,0.5667058282109534,0.9994651892144514,3.218486785888672,1.0
368,1,368,1,-1,-1.7554206048989072,0.7991524031096131,1.5041895878891007,0.5667058282109534,0.9994651892144514,1.3704639673233032,1.0
369,1,369,-1,-1,-1.3537950941724275,1.5868530033130375,1.5041895878891007,0.5667058282109534,0.9994651892144514,1.2084654569625854,1.0
370,1,370,1,1,0.2418141478717657,-0.23852596224084877,1.5041895878891007,0.5667058282109534,0.9994651892144514,1.9944559335708618,0.0
371,1,371,-1,-1,0.4729084490352087,0.7817157623029449,1.5041895878891007,0.5667058282109534,0.9994651892144514,1.5944610834121704,1.0
372,1,372,-1,-1,-1.305166374954064,1.5654194253408962,1.5041895878891007,0.5667058282109534,0.9994651892144514,2.224466323852539,1.0
373,1,373,1,1,1.8289669772588129,-0.9380789109750138,1.5041895878891007,0.5667058282109534,0.9994651892144514,1.5534615516662598,1.0
374,1,374,-1,-1,-0.8711961922123793,1.3741428731534842,1.5041895878891007,0.5667058282109534,0.9994651892144514,1.4904624223709106,1.0
375,1,375,1,-1,-1.5461038779323018,0.7068940327386747,1.5041895878891007,0.5667058282109534,0.9994651892144514,4.19041633605957,1.0
376,1,376,1,1,1.0743775107063902,-0.6054863107940021,1.5041895878891007,0.5667058282109534,0.9994651892144514,2.3634729385375977,0.0
377,1,377,1,-1,-1.1254752040546094,0.5214978795232844,1.5041895878891007,0.5667058282109534,0.9994651892144514,7.633166790008545,1.0
378,1,378,-1,1,2.0808048280606175,-0.08435795202342522,1.5041895878891007,0.5667058282109534,0.9994651892144514,2.0744593143463135,0.0
379,1,379,1,-1,-0.10695837527762986,0.0725767436919768,1.5041895878891007,0.5667058282109534,0.9994651892144514,4.230413436889648,0.0
380,1,380,-1,1,2.3222182225918533,-0.1907632388246162,1.5041895878891007,0.5667058282109534,0.9994651892144514,4.9993577003479,0.0
381,1,381,-1,1,2.4765916028275314,-0.25880479811896306,1.5041895878891007,0.5667058282109534,0.9994651892144514,5.176344871520996,1.0
382,1,382,1,1,0.24477028485151875,-0.23982890818452768,1.5041895878891007,0.5667058282109534,0.9994651892144514,2.153463125228882,0.0
383,1,383,-1,-1,-0.7997434281326207,1.3426493768236405,1.5041895878891007,0.5667058282109534,0.9994651892144514,1.7944585084915161,1.0
384,1,384,1,-1,-0.18074177147135673,0.10509748865065635,1.5041895878891007,0.5667058282109534,0.9994651892144514,2.212465763092041,1.0
385,1,385,-1,1,-0.1546019248425332,0.9009191786090374,1.5041895878891007,0.5667058282109534,0.9994651892144514,2.6494863033294678,1.0
386,1,386,-1,-1,-2.300638842840999,2.00418353639561,1.5041895878891007,0.5667058282109534,0.9994651892144514,1.3464642763137817,1.0
387,1,387,1,1,1.6138152288193321,-0.8432486984968139,1.5041895878891007,0.5667058282109534,0.9994651892144514,2.412475109100342,0.0
388,1,388,-1,1,0.7280581687913439,0.5118782117917354,1.5041895878891007,0.5667058282109534,0.9994651892144514,1.5504616498947144,1.0
389,1,389,-1,-1,-2.129716988297295,1.9288480771157768,1.5041895878891007,0.5667058282109534,0.9994651892144514,2.0214569568634033,1.0
390,1,390,-1,-1,-1.6978897574020595,1.7385160516654388,1.5041895878891007,0.5667058282109534,0.9994651892144514,1.9814560413360596,1.0
391,1,391,1,1,1.6113166910256216,-0.8421474438168919,1.5041895878891007,0.5667058282109534,0.9994651892144514,1.894457221031189,0.0
392,1,392,1,1,2.86731609799892,-1.3957413211600462,1.5041895878891007,0.5667058282109534,0.9994651892144514,2.8724966049194336,0.0
393,1,393,-1,-1,-0.21205600818277415,1.0836204667226133,1.5041895878891007,0.5667058282109534,0.9994651892144514,1.5304619073867798,1.0
394,1,394,1,1,0.8097022318560246,-0.48882812366257333,1.5041895878891007,0.5667058282109534,0.9994651892144514,3.2684831619262695,1.0
395,1,395,1,-1,-1.5734284705278576,0.7189376110061583,1.5041895878891007,0.5667058282109534,0.9994651892144514,3.148491859436035,1.0
396,1,396,-1,-1,-0.9983823263027753,1.4302013909557028,1.5041895878891007,0.5667058282109534,0.9994651892144514,1.7144595384597778,1.0
397,1,397,1,1,0.09496573018148713,-0.17380110291406675,1.5041895878891007,0.5667058282109534,0.9994651892144514,2.472477912902832,1.0
398,1,398,-1,1,1.5016902008971074,0.17089241680449452,1.5041895878891007,0.5667058282109534,0.9994651892144514,2.0954604148864746,0.0
399,1,399,1,-1,-0.5579294281360634,0.27134659368979,1.5041895878891007,0.5667058282109534,0.9994651892144514,3.9084367752075195,1.0
400,1,400,1,-1,-0.2982652268831646,0.15689708743945674,1.5041895878891007,0.5667058282109534,0.9994651892144514,1.3874636888504028,1.0
401,1,401,-1,1,1.08537015715793,0.3543894996451893,1.5041895878891007,0.5667058282109534,0.9994651892144514,3.1894888877868652,1.0
402,1,402,-1,1,-0.6710424994763047,1.1285453530654352,1.5041895878891007,0.5667058282109534,0.9994651892144514,3.8834385871887207,1.0
403,1,403,1,1,-1.1318046403328363,0.36690979412313257,1.5041895878891007,0.5667058282109534,0.9994651892144514,1.9974558353424072,1.0
404,1,404,1,1,0.7992636779452893,-0.48422723014207,1.5041895878891007,0.5667058282109534,0.9994651892144514,7.567171573638916,0.0
405,1,405,1,-1,-1.1333991190660797,0.524990421645982,1.5041895878891007,0.5667058282109534,0.9994651892144514,1.9804561138153076,1.0
406,1,406,1,1,1.465146813045614,-0.7777216574252199,1.5041895878891007,0.5667058282109534,0.9994651892144514,2.403474807739258,0.0
407,1,407,-1,1,2.427166196938132,-0.2370200727969124,1.5041895878891007,0.5667058282109534,0.9994651892144514,2.4644775390625,0.0
408,1,408,-1,-1,-1.4581828846180263,1.632862930817161,1.5041895878891007,0.5667058282109534,0.9994651892144514,1.5424617528915405,1.0
409,1,409,1,1,2.153079348757216,-1.0809345711262135,1.5041895878891007,0.5667058282109534,0.9994651892144514,3.277482509613037,0.0
410,1,410,-1,1,-0.23378704979807607,0.9358207877249826,1.5041895878891007,0.5667058282109534,0.9994651892144514,3.3544769287109375,1.0
411,1,411,-1,-1,-1.2319318421945649,1.5331405972453926,1.5041895878891007,0.5667058282109534,0.9994651892144514,1.917456865310669,1.0
412,1,412,-1,-1,-0.9470594181345205,1.4075803231656645,1.5041895878891007,0.5667058282109534,0.9994651892144514,1.3704639673233032,1.0
413,1,413,-1,-1,-0.6586286852214088,1.28045169006935,1.5041895878891007,0.5667058282109534,0.9994651892144514,1.5514616966247559,1.0
414,1,414,1,1,1.4867089721098385,-0.7872253874222102,1.5041895878891007,0.5667058282109534,0.9994651892144514,2.0194568634033203,0.0
415,1,415,1,-1,-1.224333778412312,0.5650707515990597,1.5041895878891007,0.5667058282109534,0.9994651892144514,1.4394630193710327,1.0
416,1,416,1,1,-0.9086544477053302,0.2685541900673743,1.5041895878891007,0.5667058282109534,0.9994651892144514,3.619457721710205,0.0
417,1,417,-1,-1,-1.3527082932073993,1.5863739852842151,1.5041895878891007,0.5667058282109534,0.9994651892144514,1.7694587707519531,1.0
418,1,418,-1,-1,-0.5802491331949293,1.2459051450074217,1.5041895878891007,0.5667058282109534,0.9994651892144514,2.0974605083465576,1.0
419,1,419,1,-1,-1.9729089144858878,0.8950124774954799,1.5041895878891007,0.5667058282109534,0.9994651892144514,1.6654601097106934,1.0
420,1,420,1,1,0.6888443572470994,-0.4355588473868481,1.5041895878891007,0.5667058282109534,0.9994651892144514,1.772458791732788,1.0
421,1,421,1,1,2.27794488255166,-1.1359702619203402,1.5041895878891007,0.5667058282109534,0.9994651892144514,1.7184594869613647,0.0
422,1,422,1,1,2.137777549533106,-1.0741901552325668,1.5041895878891007,0.5667058282109534,0.9994651892144514,2.1024606227874756,0.0
423,1,423,1,1,3.155138502810719,-1.5226018277664655,1.5041895878891007,0.5667058282109534,0.9994651892144514,5.155346393585205,0.0
424,1,424,-1,-1,0.028213115208635564,0.9777195284852124,1.5041895878891007,0.5667058282109534,0.9994651892144514,1.4634627103805542,1.0
425,1,425,-1,-1,-0.5224530693652285,1.2204309712992036,1.5041895878891007,0.5667058282109534,0.9994651892144514,1.7234594821929932,1.0
426,1,426,1,1,-0.09824326004025541,-0.08864237318810284,1.5041895878891007,0.5667058282109534,0.9994651892144514,2.742490530014038,1.0
427,1,427,1,-1,0.6868524803724116,-0.2773030627924668,1.5041895878891007,0.5667058282109534,0.9994651892144514,2.6314854621887207,1.0
428,1,428,-1,1,2.875723327055228,-0.4347259630169068,1.5041895878891007,0.5667058282109534,0.9994651892144514,1.6454603672027588,0.0
429,1,429,1,1,1.641851678233122,-0.8556060345367384,1.5041895878891007,0.5667058282109534,0.9994651892144514,2.0644588470458984,0.0
430,1,430,1,-1,-0.44034473065184176,0.21952000186569376,1.5041895878891007,0.5667058282109534,0.9994651892144514,2.0944602489471436,0.0
431,1,431,-1,-1,-1.782213242667233,1.7756824427480011,1.5041895878891007,0.5667058282109534,0.9994651892144514,2.0094563961029053,1.0
432,1,432,-1,1,0.6334092322717246,0.5535956453059505,1.5041895878891007,0.5667058282109534,0.9994651892144514,3.513465404510498,1.0
433,1,433,1,-1,-1.3132145899253818,0.6042458282700731,1.5041895878891007,0.5667058282109534,0.9994651892144514,2.2894694805145264,1.0
434,1,434,1,1,3.398915096445013,-1.6300487174116804,1.5041895878891007,0.5667058282109534,0.9994651892144514,3.2494845390319824,0.0
435,1,435,1,1,1.2180969883079327,-0.6688320595367496,1.5041895878891007,0.5667058282109534,0.9994651892144514,2.0214569568634033,0.0
436,1,436,1,1,0.7239538662599474,-0.45103370280328076,1.5041895878891007,0.5667058282109534,0.9994651892144514,3.360476493835449,0.0
437,1,437,1,-1,0.1743036034601575,-0.0513921917184917,1.5041895878891007,0.5667058282109534,0.9994651892144514,3.0604982376098633,0.0
438,1,438,-1,-1,-1.6623096648552753,1.7228337820084267,1.5041895878891007,0.5667058282109534,0.9994651892144514,1.173465371131897,1.0
439,1,439,1,-1,0.34476606341642824,-0.12652516839405337,1.5041895878891007,0.5667058282109534,0.9994651892144514,4.150419235229492,0.0
440,1,440,-1,-1,-2.054505490659615,1.8956978826436595,1.5041895878891007,0.5667058282109534,0.9994651892144514,1.5964610576629639,1.0
441,1,441,1,-1,-1.272524859443578,0.5863114363106441,1.5041895878891007,0.5667058282109534,0.9994651892144514,1.3734638690948486,1.0
442,1,442,-1,1,1.7915830763152418,0.04311933026808268,1.5041895878891007,0.5667058282109534,0.9994651892144514,1.7224594354629517,1.0
443,1,443,1,-1,-1.9418084765295303,0.8813046588932246,1.5041895878891007,0.5667058282109534,0.9994651892144514,1.6714601516723633,1.0
444,1,444,-1,1,1.6093717868181447,0.12343071711138753,1.5041895878891007,0.5667058282109534,0.9994651892144514,3.556462287902832,1.0
445,1,445,1,-1,-0.44140395219743467,0.21998686399885609,1.5041895878891007,0.5667058282109534,0.9994651892144514,6.232268333435059,1.0
446,1,446,1,1,2.295201721691801,-1.1435763805516375,1.5041895878891007,0.5667058282109534,0.9994651892144514,2.739490509033203,0.0
447,1,447,-1,1,0.8622749993820022,0.45272084655822503,1.5041895878891007,0.5667058282109534,0.9994651892144514,6.131275653839111,1.0
448,1,448,1,1,-0.2302267128205706,-0.030469390809182692,1.5041895878891007,0.5667058282109534,0.9994651892144514,2.17846417427063,0.0
449,1,449,-1,-1,-3.174791137335352,2.389474608517774,1.5041895878891007,0.5667058282109534,0.9994651892144514,1.283465027809143,1.0
450,1,450,1,-1,-0.7753349238913173,0.3671701670789615,1.5041895878891007,0.5667058282109534,0.9994651892144514,1.2744652032852173,1.0
451,1,451,1,1,1.8599950847946172,-0.9517548492453665,1.5041895878891007,0.5667058282109534,0.9994651892144514,3.4634690284729004,0.0
452,1,452,-1,-1,-1.008919189570991,1.4348456152756353,1.5041895878891007,0.5667058282109534,0.9994651892144514,4.7403764724731445,1.0
453,1,453,1,-1,-1.8299226514546967,0.8319899001608331,1.5041895878891007,0.5667058282109534,0.9994651892144514,2.1584632396698,1.0
454,1,454,-1,-1,-0.07135620403261633,1.0216056682374701,1.5041895878891007,0.5667058282109534,0.9994651892144514,2.949500322341919,1.0
455,1,455,-1,-1,1.662376885413961,0.257446053243909,1.5041895878891007,0.5667058282109534,0.9994651892144514,2.6304852962493896,1.0
456,1,456,1,-1,-1.246149479640511,0.5746862327552027,1.5041895878891007,0.5667058282109534,0.9994651892144514,2.7954931259155273,1.0
457,1,457,1,-1,-1.6934207337348481,0.7718253606907012,1.5041895878891007,0.5667058282109534,0.9994651892144514,1.77945876121521,1.0
458,1,458,1,-1,-1.6220157557840191,0.7403529265590167,1.5041895878891007,0.5667058282109534,0.9994651892144514,1.8494577407836914,1.0
459,1,459,1,1,1.2805910222790415,-0.6963769089887497,1.5041895878891007,0.5667058282109534,0.9994651892144514,3.835442066192627,0.0
460,1,460,-1,1,1.5864038073481557,0.13355407603889657,1.5041895878891007,0.5667058282109534,0.9994651892144514,7.075207233428955,0.0
461,1,461,1,1,2.575428370559314,-1.2670889843157433,1.5041895878891007,0.5667058282109534,0.9994651892144514,1.8304580450057983,0.0
462,1,462,-1,-1,-1.1562323189990813,1.4997753007921064,1.5041895878891007,0.5667058282109534,0.9994651892144514,1.6984597444534302,1.0
463,1,463,1,-1,-0.8360821912260731,0.39394511225420514,1.5041895878891007,0.5667058282109534,0.9994651892144514,2.18546462059021,1.0
464,1,464,1,1,0.5756142155160959,-0.38565156809597995,1.5041895878891007,0.5667058282109534,0.9994651892144514,1.917456865310669,1.0
465,1,465,1,1,1.597489024146288,-0.8360527660010906,1.5041895878891007,0.5667058282109534,0.9994651892144514,3.305480480194092,0.0
466,1,466,-1,1,-0.20717663766948213,0.9240919914005742,1.5041895878891007,0.5667058282109534,0.9994651892144514,2.181464433670044,1.0
467,1,467,1,1,1.8514922956095954,-0.9480071627360942,1.5041895878891007,0.5667058282109534,0.9994651892144514,3.174489974975586,0.0
468,1,468,1,1,1.604871318296977,-0.839306583494855,1.5041895878891007,0.5667058282109534,0.9994651892144514,3.5054659843444824,0.0
469,1,469,-1,-1,-1.5611914183172595,1.6782649375803727,1.5041895878891007,0.5667058282109534,0.9994651892144514,1.4474629163742065,1.0
470,1,470,1,1,0.7288520754704313,-0.4531926358519867,1.5041895878891007,0.5667058282109534,0.9994651892144514,3.813443660736084,0.0
471,1,471,-1,1,1.7787145896881693,0.04879124011761582,1.5041895878891007,0.5667058282109534,0.9994651892144514,2.1284618377685547,1.0
472,1,472,1,-1,-1.852528992675823,0.8419538635350704,1.5041895878891007,0.5667058282109534,0.9994651892144514,1.1914653778076172,1.0
473,1,473,1,1,0.7325594909052386,-0.45482671503552924,1.5041895878891007,0.5667058282109534,0.9994651892144514,1.544461727142334,1.0
474,1,474,-1,1,-0.1736647550491892,0.9093213052570647,1.5041895878891007,0.5667058282109534,0.9994651892144514,1.5074622631072998,1.0
475,1,475,-1,-1,-2.86880294514875,2.2546073555610175,1.5041895878891007,0.5667058282109534,0.9994651892144514,1.544461727142334,1.0
476,1,476,1,1,-0.18979466235624143,-0.04829020781053811,1.5041895878891007,0.5667058282109534,0.9994651892144514,2.237467050552368,0.0
477,1,477,-1,-1,0.016032091515189695,0.9830884324027019,1.5041895878891007,0.5667058282109534,0.9994651892144514,4.4004011154174805,1.0
478,1,478,1,-1,-0.7373118810566242,0.3504111434724399,1.5041895878891007,0.5667058282109534,0.9994651892144514,6.181272029876709,1.0
479,1,479,1,-1,-2.611439844884485,1.1764511562084914,1.5041895878891007,0.5667058282109534,0.9994651892144514,3.4994664192199707,1.0
480,1,480,-1,1,1.370705694892188,0.22862510373774758,1.5041895878891007,0.5667058282109534,0.9994651892144514,3.1784896850585938,1.0
481,1,481,-1,-1,0.12759960324829578,0.9339139733520448,1.5041895878891007,0.5667058282109534,0.9994651892144514,1.4184633493423462,1.0
482,1,482,-1,-1,-1.4764954651269169,1.6409343776600425,1.5041895878891007,0.5667058282109534,0.9994651892144514,1.915457010269165,1.0
483,1,483,-1,1,2.5828847288004226,-0.30565452067102805,1.5041895878891007,0.5667058282109534,0.9994651892144514,2.3984744548797607,0.0
484,1,484,-1,-1,-1.0305502117571255,1.4443796973591412,1.5041895878891007,0.5667058282109534,0.9994651892144514,1.4604628086090088,1.0
485,1,485,-1,-1,-0.09058845242957658,1.0300824675902314,1.5041895878891007,0.5667058282109534,0.9994651892144514,1.2744652032852173,1.0
486,1,486,-1,-1,0.13074831717874824,0.9325261472561679,1.5041895878891007,0.5667058282109534,0.9994651892144514,2.434476137161255,1.0
487,1,487,1,-1,-1.349993918600112,0.6204566728406032,1.5041895878891007,0.5667058282109534,0.9994651892144514,2.0384576320648193,1.0
488,1,488,-1,-1,-0.9819001475373337,1.4229367113713296,1.5041895878891007,0.5667058282109534,0.9994651892144514,1.6074609756469727,1.0
489,1,489,1,1,1.7239597292362334,-0.8917959515570324,1.5041895878891007,0.5667058282109534,0.9994651892144514,2.5114798545837402,1.0
490,1,490,-1,1,1.4182088496218916,0.2076876291921027,1.5041895878891007,0.5667058282109534,0.9994651892144514,3.9704322814941406,1.0
491,1,491,-1,1,1.998057969104768,-0.04788647422414494,1.5041895878891007,0.5667058282109534,0.9994651892144514,4.288409233093262,0.0
492,1,492,-1,1,0.724265831338032,0.5135497211756703,1.5041895878891007,0.5667058282109534,0.9994651892144514,2.688488006591797,1.0
493,1,493,1,-1,-1.1542898689848728,0.5341982215732289,1.5041895878891007,0.5667058282109534,0.9994651892144514,1.864457607269287,1.0
494,1,494,-1,-1,-0.595874005410842,1.2527919584445733,1.5041895878891007,0.5667058282109534,0.9994651892144514,1.2224653959274292,1.0
495,1,495,-1,-1,-1.4314971399214365,1.62110093093535,1.5041895878891007,0.5667058282109534,0.9994651892144514,1.5264619588851929,1.0
496,1,496,-1,1,0.9658506498579527,0.407068877594724,1.5041895878891007,0.5667058282109534,0.9994651892144514,2.419475555419922,0.0
497,1,497,-1,-1,-2.643278479317227,2.1552052676442113,1.5041895878891007,0.5667058282109534,0.9994651892144514,1.2744652032852173,1.0
498,1,498,1,1,0.4287571499634889,-0.32092289714029865,1.5041895878891007,0.5667058282109534,0.9994651892144514,5.600314140319824,0.0
499,1,499,-1,1,0.3048321843684987,0.6984191547318441,1.5041895878891007,0.5667058282109534,0.9994651892144514,3.4214720726013184,1.0
500,2,0,-1,1,1.5944295665273962,1.159885329569673,0.9336497176359342,0.5665522710763228,1.3302994159400119,1.6162992715835571,1.0
501,2,1,-1,-1,-1.0352227282950772,1.857964150002856,0.9336497176359342,0.5665522710763228,1.3302994159400119,1.974294662475586,1.0
502,2,2,-1,1,1.007530569891185,1.2783122796804833,0.9336497176359342,0.5665522710763228,1.3302994159400119,1.6182992458343506,1.0
503,2,3,-1,1,1.796181748093156,1.1191749250912588,0.9336497176359342,0.5665522710763228,1.3302994159400119,3.271334171295166,1.0
504,2,4,-1,-1,-2.042367945460059,2.0611901515314806,0.9336497176359342,0.5665522710763228,1.3302994159400119,2.0932931900024414,1.0
505,2,5,-1,1,-0.5314213042630349,1.5888484671130372,0.9336497176359342,0.5665522710763228,1.3302994159400119,1.5062994956970215,1.0
506,2,6,-1,1,2.257065239002057,1.0261759141922904,0.9336497176359342,0.5665522710763228,1.3302994159400119,2.6223037242889404,1.0
507,2,7,1,-1,-0.4826894266573002,0.2077977560263446,0.9336497176359342,0.5665522710763228,1.3302994159400119,1.923295259475708,1.0
508,2,8,-1,1,0.05692894669544735,1.4701286767959787,0.9336497176359342,0.5665522710763228,1.3302994159400119,1.5332995653152466,1.0
509,2,9,1,-1,-0.1017779719747568,0.1309358392419011,0.9336497176359342,0.5665522710763228,1.3302994159400119,1.4552994966506958,1.0
510,2,10,-1,1,2.3728758790033666,1.0028071557443399,0.9336497176359342,0.5665522710763228,1.3302994159400119,2.4492955207824707,1.0
511,2,11,1,-1,-0.3263460199710889,0.17625012529277428,0.9336497176359342,0.5665522710763228,1.3302994159400119,2.6423046588897705,0.0
512,2,12,-1,-1,-1.2843196836636717,1.908227982238502,0.9336497176359342,0.5665522710763228,1.3302994159400119,1.6562987565994263,1.0
513,2,13,-1,-1,-0.6843673102724224,1.7871670668174648,0.9336497176359342,0.5665522710763228,1.3302994159400119,1.8872957229614258,1.0
514,2,14,1,-1,-1.5263733183296149,0.4183966851077439,0.9336497176359342,0.5665522710763228,1.3302994159400119,3.7873036861419678,1.0
515,2,15,-1,-1,-1.5277091141256913,1.9573401260724956,0.9336497176359342,0.5665522710763228,1.3302994159400119,1.7292977571487427,1.0
516,2,16,1,-1,-0.19001958276792963,0.148741602923549,0.9336497176359342,0.5665522710763228,1.3302994159400119,1.4422993659973145,1.0
517,2,17,1,1,-1.1267398477422468,0.17030045036222702,0.9336497176359342,0.5665522710763228,1.3302994159400119,1.624299168586731,1.0
518,2,18,-1,-1,0.2683058991788796,1.5949326563069153,0.9336497176359342,0.5665522710763228,1.3302994159400119,1.7042981386184692,1.0
519,2,19,1,1,2.2830102332754048,-0.5177332744343903,0.9336497176359342,0.5665522710763228,1.3302994159400119,3.1763296127319336,0.0
520,2,20,-1,-1,-1.6977320467617996,1.9916480691366256,0.9336497176359342,0.5665522710763228,1.3302994159400119,1.5592997074127197,1.0
521,2,21,1,-1,-1.4498637964832295,0.40295827172037163,0.9336497176359342,0.5665522710763228,1.3302994159400119,1.4872995615005493,1.0
522,2,22,-1,1,0.6251008075488899,1.355480566975875,0.9336497176359342,0.5665522710763228,1.3302994159400119,2.199291706085205,1.0
523,2,23,-1,-1,-1.7130725057457616,1.994743531526548,0.9336497176359342,0.5665522710763228,1.3302994159400119,1.6572986841201782,1.0
524,2,24,-1,1,1.5205766887353716,1.1747876741365304,0.9336497176359342,0.5665522710763228,1.3302994159400119,1.6562987565994263,1.0
525,2,25,-1,-1,-1.8098511363285716,2.014271930998199,0.9336497176359342,0.5665522710763228,1.3302994159400119,1.5622997283935547,1.0
526,2,26,1,1,0.2479798589508111,-0.10709627897960342,0.9336497176359342,0.5665522710763228,1.3302994159400119,3.271334171295166,0.0
527,2,27,-1,1,-0.35761141798609697,1.5537763766019617,0.9336497176359342,0.5665522710763228,1.3302994159400119,1.7922970056533813,1.0
528,2,28,1,1,1.9190794446072896,-0.44429778791897917,0.9336497176359342,0.5665522710763228,1.3302994159400119,1.881295919418335,1.0
529,2,29,-1,-1,-1.5254926917453426,1.9568928870344902,0.9336497176359342,0.5665522710763228,1.3302994159400119,1.9202953577041626,0.0
530,2,30,-1,-1,-0.90459093855588,1.8316047175707046,0.9336497176359342,0.5665522710763228,1.3302994159400119,1.476299524307251,1.0
531,2,31,1,1,1.3453603360477424,-0.32853033110542607,0.9336497176359342,0.5665522710763228,1.3302994159400119,1.6852983236312866,0.0
532,2,32,1,1,2.1787292738818245,-0.49669102347401606,0.9336497176359342,0.5665522710763228,1.3302994159400119,1.4842995405197144,0.0
533,2,33,-1,-1,-2.696259733851204,2.1931351891708397,0.9336497176359342,0.5665522710763228,1.3302994159400119,1.54129958152771,1.0
534,2,34,-1,1,1.769881765826646,1.1244818462235875,0.9336497176359342,0.5665522710763228,1.3302994159400119,1.8842958211898804,1.0
535,2,35,-1,1,2.301125332740827,1.0172852830053483,0.9336497176359342,0.5665522710763228,1.3302994159400119,1.7892969846725464,1.0
536,2,36,1,1,2.689042894575829,-0.5996642540386894,0.9336497176359342,0.5665522710763228,1.3302994159400119,2.771310806274414,0.0
537,2,37,-1,-1,-1.282191824858129,1.9077986139314318,0.9336497176359342,0.5665522710763228,1.3302994159400119,2.2732908725738525,1.0
538,2,38,1,-1,-0.9077818289527423,0.29357469040119005,0.9336497176359342,0.5665522710763228,1.3302994159400119,2.4242944717407227,1.0
539,2,39,-1,-1,-1.1902077568377392,1.8892376814764862,0.9336497176359342,0.5665522710763228,1.3302994159400119,2.0302939414978027,1.0
540,2,40,1,1,1.937669846558752,-0.4480490374816197,0.9336497176359342,0.5665522710763228,1.3302994159400119,2.012294292449951,0.0
541,2,41,1,-1,-1.2293381997074389,0.3584596884936032,0.9336497176359342,0.5665522710763228,1.3302994159400119,2.3132903575897217,1.0
542,2,42,-1,1,0.5230726183175842,1.3760682444897994,0.9336497176359342,0.5665522710763228,1.3302994159400119,2.3122901916503906,1.0
543,2,43,1,1,0.6881600415560901,-0.19591768917784763,0.9336497176359342,0.5665522710763228,1.3302994159400119,1.7452975511550903,0.0
544,2,44,-1,-1,-0.8722580494595914,1.8250804511025545,0.9336497176359342,0.5665522710763228,1.3302994159400119,1.6822984218597412,1.0
545,2,45,-1,-1,-2.895282665364358,2.233294874084776,0.9336497176359342,0.5665522710763228,1.3302994159400119,1.3802993297576904,1.0
546,2,46,-1,1,1.2837474795661683,1.2225760689026044,0.9336497176359342,0.5665522710763228,1.3302994159400119,3.246332883834839,1.0
547,2,47,-1,-1,-0.2357222322222422,1.6966375743831081,0.9336497176359342,0.5665522710763228,1.3302994159400119,1.830296516418457,1.0
548,2,48,-1,-1,-2.6569358021554694,2.185200240697962,0.9336497176359342,0.5665522710763228,1.3302994159400119,2.0062942504882812,1.0
549,2,49,-1,1,3.5487946131587225,0.7655253235000359,0.9336497176359342,0.5665522710763228,1.3302994159400119,2.9053168296813965,1.0
550,2,50,-1,-1,-1.931810282549649,2.038881360913502,0.9336497176359342,0.5665522710763228,1.3302994159400119,2.197291851043701,1.0
551,2,51,-1,1,-0.07046654276561637,1.495835074934702,0.9336497176359342,0.5665522710763228,1.3302994159400119,1.7272977828979492,1.0
552,2,52,1,-1,0.3253992623007995,0.04473821869394319,0.9336497176359342,0.5665522710763228,1.3302994159400119,4.1792755126953125,1.0
553,2,53,1,1,1.6297300266495816,-0.38591164433811054,0.9336497176359342,0.5665522710763228,1.3302994159400119,2.3492908477783203,0.0
554,2,54,1,1,0.5538355853139524,-0.1688131349543383,0.9336497176359342,0.5665522710763228,1.3302994159400119,3.332336664199829,0.0
555,2,55,1,1,1.1023934557636246,-0.2795034512250675,0.9336497176359342,0.5665522710763228,1.3302994159400119,3.26033353805542,1.0
556,2,56,-1,-1,-1.0352001284007175,1.8579595897010373,0.9336497176359342,0.5665522710763228,1.3302994159400119,1.567299723625183,1.0
557,2,57,1,1,0.626143792126635,-0.18340378930864393,0.9336497176359342,0.5665522710763228,1.3302994159400119,2.825313091278076,0.0
558,2,58,-1,-1,-2.1582701505268775,2.0845773863637955,0.9336497176359342,0.5665522710763228,1.3302994159400119,1.4692994356155396,1.0
559,2,59,1,1,-0.8980083091564914,0.12414603765387704,0.9336497176359342,0.5665522710763228,1.3302994159400119,1.6122993230819702,0.0
560,2,60,-1,1,1.9336579597431753,1.0914343963941349,0.9336497176359342,0.5665522710763228,1.3302994159400119,1.764297366142273,1.0
561,2,61,1,1,-0.14725584571104378,-0.02734395473595923,0.9336497176359342,0.5665522710763228,1.3302994159400119,2.256290912628174,0.0
562,2,62,1,1,0.40084845489326604,-0.1379427477739748,0.9336497176359342,0.5665522710763228,1.3302994159400119,1.6582987308502197,0.0
563,2,63,-1,1,1.5400259477292524,1.1708631207844853,0.9336497176359342,0.5665522710763228,1.3302994159400119,1.5572996139526367,1.0
564,2,64,1,-1,0.7191793879833566,-0.03472039269595335,0.9336497176359342,0.5665522710763228,1.3302994159400119,2.015294075012207,0.0
565,2,65,-1,-1,-2.0110309382184752,2.0548668382961686,0.9336497176359342,0.5665522710763228,1.3302994159400119,1.7742972373962402,1.0
566,2,66,-1,-1,-0.3817183106237956,1.7260972776580004,0.9336497176359342,0.5665522710763228,1.3302994159400119,2.055293560028076,1.0
567,2,67,-1,1,1.808563365471286,1.1166765102158969,0.9336497176359342,0.5665522710763228,1.3302994159400119,1.5292996168136597,1.0
568,2,68,1,1,2.648946460667809,-0.591573426817545,0.9336497176359342,0.5665522710763228,1.3302994159400119,1.668298602104187,0.0
569,2,69,-1,1,-0.27819980327002436,1.537752366698894,0.9336497176359342,0.5665522710763228,1.3302994159400119,1.4972995519638062,1.0
570,2,70,-1,-1,-1.6236845199483656,1.9767064474708467,0.9336497176359342,0.5665522710763228,1.3302994159400119,1.9762946367263794,1.0
571,2,71,-1,1,1.7097325382166806,1.1366190105707683,0.9336497176359342,0.5665522710763228,1.3302994159400119,1.720297932624817,0.0
572,2,72,1,1,1.8053085549975414,-0.42134061889143054,0.9336497176359342,0.5665522710763228,1.3302994159400119,3.038323163986206,0.0
573,2,73,1,-1,-1.3314360176336646,0.37906141597869286,0.9336497176359342,0.5665522710763228,1.3302994159400119,1.4552994966506958,1.0
574,2,74,1,-1,-1.8190187447381754,0.4774479111484755,0.9336497176359342,0.5665522710763228,1.3302994159400119,3.458327531814575,1.0
575,2,75,-1,1,-0.13487325269262107,1.5088313319858189,0.9336497176359342,0.5665522710763228,1.3302994159400119,1.7022981643676758,1.0
576,2,76,1,1,-0.08155043308809562,-0.04060226948399301,0.9336497176359342,0.5665522710763228,1.3302994159400119,1.923295259475708,1.0
577,2,77,1,1,1.498515118877401,-0.35943454789461005,0.9336497176359342,0.5665522710763228,1.3302994159400119,2.0452938079833984,0.0
578,2,78,-1,1,0.985555677510335,1.2827464659690833,0.9336497176359342,0.5665522710763228,1.3302994159400119,1.8072967529296875,1.0
579,2,79,-1,1,1.123295888704758,1.2549526663325754,0.9336497176359342,0.5665522710763228,1.3302994159400119,1.9782946109771729,1.0
580,2,80,-1,1,1.504382430933096,1.178055419646105,0.9336497176359342,0.5665522710763228,1.3302994159400119,2.558300733566284,1.0
581,2,81,-1,-1,-2.124879711451142,2.0778397230090033,0.9336497176359342,0.5665522710763228,1.3302994159400119,2.303290367126465,1.0
582,2,82,-1,1,1.6724405638605453,1.1441439421380737,0.9336497176359342,0.5665522710763228,1.3302994159400119,1.7412976026535034,1.0
583,2,83,1,1,-0.19056619260856378,-0.018604610622727127,0.9336497176359342,0.5665522710763228,1.3302994159400119,1.4752994775772095,1.0
584,2,84,-1,1,1.8546694123845586,1.1073730379849,0.9336497176359342,0.5665522710763228,1.3302994159400119,1.6182992458343506,1.0
585,2,85,-1,1,-1.3666790591726912,1.7573902929421708,0.9336497176359342,0.5665522710763228,1.3302994159400119,1.504299521446228,1.0
586,2,86,1,-1,-1.5173313411073015,0.4165721568813416,0.9336497176359342,0.5665522710763228,1.3302994159400119,1.8942956924438477,1.0
587,2,87,-1,-1,-2.2075663946914927,2.0945245900254026,0.9336497176359342,0.5665522710763228,1.3302994159400119,1.4812995195388794,1.0
588,2,88,1,1,-0.631024560789609,0.07027293303202602,0.9336497176359342,0.5665522710763228,1.3302994159400119,2.1362924575805664,1.0
589,2,89,1,-1,-0.9193396651979565,0.2959068792518201,0.9336497176359342,0.5665522710763228,1.3302994159400119,1.6412988901138306,1.0
590,2,90,-1,1,-0.9984092073672708,1.683079252001493,0.9336497176359342,0.5665522710763228,1.3302994159400119,2.0772933959960938,1.0
591,2,91,1,1,-0.6770245816851759,0.07955501088685026,0.9336497176359342,0.5665522710763228,1.3302994159400119,2.9773201942443848,0.0
592,2,92,1,-1,-2.4074184890487733,0.5961776884424678,0.9336497176359342,0.5665522710763228,1.3302994159400119,1.54129958152771,1.0
593,2,93,-1,1,1.2962060236634314,1.2200621314300304,0.9336497176359342,0.5665522710763228,1.3302994159400119,1.410299301147461,1.0
594,2,94,1,-1,-2.8400805522327905,0.6834820608561326,0.9336497176359342,0.5665522710763228,1.3302994159400119,1.546299695968628,1.0
595,2,95,-1,1,1.0899519467126724,1.2616809473100978,0.9336497176359342,0.5665522710763228,1.3302994159400119,1.717297911643982,1.0
596,2,96,-1,1,0.600137833080137,1.3605177010465963,0.9336497176359342,0.5665522710763228,1.3302994159400119,1.808296799659729,1.0
597,2,97,-1,1,-0.2887310252455271,1.5398774010006169,0.9336497176359342,0.5665522710763228,1.3302994159400119,1.409299373626709,1.0
598,2,98,-1,1,0.3462804941286436,1.411742103520582,0.9336497176359342,0.5665522710763228,1.3302994159400119,3.1273274421691895,1.0
599,2,99,-1,1,0.2984597277299551,1.4213915790675107,0.9336497176359342,0.5665522710763228,1.3302994159400119,2.072293281555176,1.0
600,2,100,1,-1,-1.0196492828975483,0.3161477761676951,0.9336497176359342,0.5665522710763228,1.3302994159400119,2.3202900886535645,1.0
601,2,101,1,-1,0.11147295991783812,0.08790516851819175,0.9336497176359342,0.5665522710763228,1.3302994159400119,1.599299430847168,1.0
602,2,102,1,1,1.3743403109116963,-0.334378032425579,0.9336497176359342,0.5665522710763228,1.3302994159400119,1.513299584388733,0.0
603,2,103,1,1,-0.948897448166611,0.1344146623427503,0.9336497176359342,0.5665522710763228,1.3302994159400119,3.7313077449798584,1.0
604,2,104,1,1,0.39847019553080876,-0.13746285258846153,0.9336497176359342,0.5665522710763228,1.3302994159400119,2.3362903594970703,1.0
605,2,105,1,1,-0.29050415831576437,0.001561292789642607,0.9336497176359342,0.5665522710763228,1.3302994159400119,1.4482994079589844,1.0
606,2,106,1,1,1.8405274839117614,-0.42844724262291706,0.9336497176359342,0.5665522710763228,1.3302994159400119,2.3932929039001465,0.0
607,2,107,1,-1,-2.01305336162321,0.5166010329382844,0.9336497176359342,0.5665522710763228,1.3302994159400119,1.6412988901138306,1.0
608,2,108,-1,-1,-0.974400866822704,1.8456912587634458,0.9336497176359342,0.5665522710763228,1.3302994159400119,1.8632960319519043,1.0
609,2,109,-1,-1,-1.6485273642422467,1.9817193411691907,0.9336497176359342,0.5665522710763228,1.3302994159400119,1.9362951517105103,1.0
610,2,110,1,1,2.0861372841047388,-0.4780074220079388,0.9336497176359342,0.5665522710763228,1.3302994159400119,2.0422937870025635,1.0
611,2,111,1,-1,-1.274425378043734,0.36755756913417853,0.9336497176359342,0.5665522710763228,1.3302994159400119,1.642298936843872,1.0
612,2,112,-1,-1,-2.4819271113838672,2.1498862503695486,0.9336497176359342,0.5665522710763228,1.3302994159400119,2.15029239654541,1.0
613,2,113,1,1,1.4172327691433957,-0.34303305320470656,0.9336497176359342,0.5665522710763228,1.3302994159400119,1.5922995805740356,0.0
614,2,114,-1,-1,-0.9239954334203864,1.8355202382282885,0.9336497176359342,0.5665522710763228,1.3302994159400119,2.3722920417785645,1.0
615,2,115,-1,-1,0.9596248989383438,1.4554353984066482,0.9336497176359342,0.5665522710763228,1.3302994159400119,2.199291706085205,1.0
616,2,116,1,-1,-0.16080654483385404,0.14284687315602065,0.9336497176359342,0.5665522710763228,1.3302994159400119,1.639298915863037,1.0
617,2,117,-1,1,1.1280460311016038,1.2539941626038678,0.9336497176359342,0.5665522710763228,1.3302994159400119,1.6442989110946655,1.0
618,2,118,1,-1,-2.0975147374443877,0.5336440048942667,0.9336497176359342,0.5665522710763228,1.3302994159400119,1.595299482345581,0.0
619,2,119,-1,-1,-1.6990583038299034,1.991915686870748,0.9336497176359342,0.5665522710763228,1.3302994159400119,1.8892958164215088,1.0
620,2,120,1,1,0.9915461043586302,-0.257136206043199,0.9336497176359342,0.5665522710763228,1.3302994159400119,1.761297345161438,0.0
621,2,121,-1,1,2.1408275006600492,1.0496308543413109,0.9336497176359342,0.5665522710763228,1.3302994159400119,1.6382989883422852,1.0
622,2,122,-1,-1,-0.40389567006170646,1.7305723186016655,0.9336497176359342,0.5665522710763228,1.3302994159400119,1.5302996635437012,1.0
623,2,123,1,-1,-0.9433387298339391,0.30074951153887663,0.9336497176359342,0.5665522710763228,1.3302994159400119,2.8653149604797363,0.0
624,2,124,1,1,1.3197758880296604,-0.3233677934858089,0.9336497176359342,0.5665522710763228,1.3302994159400119,1.6822984218597412,1.0
625,2,125,1,-1,0.2769133972928437,0.05452190063800327,0.9336497176359342,0.5665522710763228,1.3302994159400119,3.953291654586792,1.0
626,2,126,-1,1,0.5001056928602337,1.3807026073885695,0.9336497176359342,0.5665522710763228,1.3302994159400119,1.7022981643676758,0.0
627,2,127,-1,-1,-1.7141921005054823,1.9949694480701334,0.9336497176359342,0.5665522710763228,1.3302994159400119,1.7302978038787842,1.0
628,2,128,1,-1,-1.2729450783980958,0.3672588680403143,0.9336497176359342,0.5665522710763228,1.3302994159400119,1.9952943325042725,1.0
629,2,129,-1,-1,0.08418943473175045,1.6320844515470327,0.9336497176359342,0.5665522710763228,1.3302994159400119,1.5392996072769165,1.0
630,2,130,-1,-1,-1.5045043487233292,1.9526577708284263,0.9336497176359342,0.5665522710763228,1.3302994159400119,1.5892995595932007,1.0
631,2,131,-1,-1,-0.542391752444054,1.7585186411083362,0.9336497176359342,0.5665522710763228,1.3302994159400119,1.4342994689941406,1.0
632,2,132,-1,-1,-2.6723837534277655,2.1883173933343167,0.9336497176359342,0.5665522710763228,1.3302994159400119,1.6132992506027222,1.0
633,2,133,-1,1,2.0793405715649316,1.0620379457252616,0.9336497176359342,0.5665522710763228,1.3302994159400119,1.6162992715835571,1.0
634,2,134,1,-1,-0.24725365445197456,0.16029053483655809,0.9336497176359342,0.5665522710763228,1.3302994159400119,3.44032883644104,1.0
635,2,135,-1,1,0.7533957736695809,1.329592668650397,0.9336497176359342,0.5665522710763228,1.3302994159400119,1.643298864364624,1.0
636,2,136,1,-1,-0.4594150841811563,0.2031013612274407,0.9336497176359342,0.5665522710763228,1.3302994159400119,3.0903255939483643,1.0
637,2,137,-1,-1,-0.06837778633222213,1.6628701076497772,0.9336497176359342,0.5665522710763228,1.3302994159400119,2.8583147525787354,1.0
638,2,138,-1,1,0.5456326772757429,1.3715159808259532,0.9336497176359342,0.5665522710763228,1.3302994159400119,1.713297963142395,1.0
639,2,139,1,1,-0.35950423800029774,0.015484419326366378,0.9336497176359342,0.5665522710763228,1.3302994159400119,2.3402905464172363,0.0
640,2,140,1,1,1.8254670023487671,-0.4254082752555711,0.9336497176359342,0.5665522710763228,1.3302994159400119,1.720297932624817,0.0
641,2,141,-1,-1,-2.0984717219943363,2.072511007731157,0.9336497176359342,0.5665522710763228,1.3302994159400119,1.4972995519638062,1.0
642,2,142,1,1,1.6126836402927678,-0.3824719527417398,0.9336497176359342,0.5665522710763228,1.3302994159400119,1.537299633026123,1.0
643,2,143,-1,-1,0.23890070112889572,1.6008661609515356,0.9336497176359342,0.5665522710763228,1.3302994159400119,2.1262927055358887,1.0
644,2,144,1,1,2.769714239905512,-0.6159424576878466,0.9336497176359342,0.5665522710763228,1.3302994159400119,1.594299554824829,0.0
645,2,145,-1,1,1.8365603865198126,1.1110271534543954,0.9336497176359342,0.5665522710763228,1.3302994159400119,2.6723060607910156,1.0
646,2,146,-1,1,1.6534918478993785,1.1479674938099262,0.9336497176359342,0.5665522710763228,1.3302994159400119,1.9882944822311401,1.0
647,2,147,-1,-1,-0.5556509979022084,1.761194147472088,0.9336497176359342,0.5665522710763228,1.3302994159400119,2.061293601989746,1.0
648,2,148,-1,1,-0.1780461176626098,1.5175429344169793,0.9336497176359342,0.5665522710763228,1.3302994159400119,1.7062981128692627,1.0
649,2,149,-1,1,0.9309409480515894,1.293766855981669,0.9336497176359342,0.5665522710763228,1.3302994159400119,1.5302996635437012,1.0
650,2,150,-1,1,1.6093896073472378,1.1568666295582886,0.9336497176359342,0.5665522710763228,1.3302994159400119,1.6142992973327637,1.0
651,2,151,-1,1,2.2962289178513133,1.018273302213365,0.9336497176359342,0.5665522710763228,1.3302994159400119,1.5902996063232422,1.0
652,2,152,-1,-1,-1.7851814570142577,2.0092939792583753,0.9336497176359342,0.5665522710763228,1.3302994159400119,1.7052980661392212,1.0
653,2,153,1,1,-0.029369251575656508,-0.05113160794787734,0.9336497176359342,0.5665522710763228,1.3302994159400119,1.7522975206375122,1.0
654,2,154,-1,-1,-0.5578360773414655,1.7616350619995012,0.9336497176359342,0.5665522710763228,1.3302994159400119,2.023293972015381,1.0
655,2,155,1,-1,-0.5762641654110543,0.2266796607178464,0.9336497176359342,0.5665522710763228,1.3302994159400119,3.5423214435577393,1.0
656,2,156,1,-1,1.2115456868032375,-0.1340721371030571,0.9336497176359342,0.5665522710763228,1.3302994159400119,1.6192991733551025,1.0
657,2,157,-1,-1,-0.867320875596092,1.8240842073771908,0.9336497176359342,0.5665522710763228,1.3302994159400119,1.9462950229644775,1.0
658,2,158,1,1,2.6885228358023108,-0.5995593143901653,0.9336497176359342,0.5665522710763228,1.3302994159400119,1.8652961254119873,0.0
659,2,159,-1,-1,-3.1953073502466305,2.2938351179635506,0.9336497176359342,0.5665522710763228,1.3302994159400119,1.7002981901168823,1.0
660,2,160,-1,-1,-0.899976041609926,1.830673504238398,0.9336497176359342,0.5665522710763228,1.3302994159400119,1.6062994003295898,1.0
661,2,161,1,1,0.22344113683405142,-0.1021447523343707,0.9336497176359342,0.5665522710763228,1.3302994159400119,1.8472962379455566,0.0
662,2,162,-1,1,1.192963876546208,1.2408947664763688,0.9336497176359342,0.5665522710763228,1.3302994159400119,1.694298267364502,1.0
663,2,163,1,-1,-1.4889670546361544,0.41084869175684857,0.9336497176359342,0.5665522710763228,1.3302994159400119,1.7682973146438599,1.0
664,2,164,-1,1,1.1406702454528956,1.2514467954900417,0.9336497176359342,0.5665522710763228,1.3302994159400119,1.6012994050979614,1.0
665,2,165,-1,-1,-0.2906540179813534,1.70772194135064,0.9336497176359342,0.5665522710763228,1.3302994159400119,2.0892932415008545,1.0
666,2,166,1,1,0.2434692070037845,-0.10618610064200291,0.9336497176359342,0.5665522710763228,1.3302994159400119,1.9132955074310303,0.0
667,2,167,-1,-1,-0.271268973676389,1.7038103455088383,0.9336497176359342,0.5665522710763228,1.3302994159400119,2.064293384552002,1.0
668,2,168,-1,-1,1.0405924385163536,1.4390974274352244,0.9336497176359342,0.5665522710763228,1.3302994159400119,1.4272993803024292,1.0
669,2,169,1,-1,-1.7478893290673956,0.46309511823294097,0.9336497176359342,0.5665522710763228,1.3302994159400119,1.4922995567321777,1.0
670,2,170,-1,-1,-1.1567980246844252,1.8824961250832852,0.9336497176359342,0.5665522710763228,1.3302994159400119,1.5852996110916138,1.0
671,2,171,1,1,2.0905145330058827,-0.4788906817173768,0.9336497176359342,0.5665522710763228,1.3302994159400119,1.6772984266281128,0.0
672,2,172,1,1,1.3237394232036008,-0.324167572297831,0.9336497176359342,0.5665522710763228,1.3302994159400119,1.9392950534820557,0.0
673,2,173,-1,-1,-1.3399262052549799,1.9194485002425759,0.9336497176359342,0.5665522710763228,1.3302994159400119,1.5572996139526367,1.0
674,2,174,1,1,1.0159368281084684,-0.26205786895495053,0.9336497176359342,0.5665522710763228,1.3302994159400119,1.877295970916748,0.0
675,2,175,-1,-1,-1.3052735930072008,1.9124561502719715,0.9336497176359342,0.5665522710763228,1.3302994159400119,1.507299542427063,1.0
676,2,176,1,-1,-2.720659274448069,0.6593847327171534,0.9336497176359342,0.5665522710763228,1.3302994159400119,1.546299695968628,1.0
677,2,177,1,-1,-0.37064572923763717,0.18518910710958053,0.9336497176359342,0.5665522710763228,1.3302994159400119,2.2242913246154785,0.0
678,2,178,-1,-1,-1.6057995478410865,1.9730975425116943,0.9336497176359342,0.5665522710763228,1.3302994159400119,1.6492987871170044,1.0
679,2,179,1,-1,-0.5671684272739728,0.2248442843877539,0.9336497176359342,0.5665522710763228,1.3302994159400119,1.6882983446121216,1.0
680,2,180,1,1,2.5207912034521973,-0.5657137195430431,0.9336497176359342,0.5665522710763228,1.3302994159400119,4.1102800369262695,0.0
681,2,181,-1,1,1.724836614923357,1.133571246391815,0.9336497176359342,0.5665522710763228,1.3302994159400119,1.8992955684661865,1.0
682,2,182,1,1,2.259983947926357,-0.513086933646796,0.9336497176359342,0.5665522710763228,1.3302994159400119,1.8532962799072266,0.0
683,2,183,-1,-1,0.3156624260672163,1.5853768569626157,0.9336497176359342,0.5665522710763228,1.3302994159400119,2.495297908782959,1.0
684,2,184,1,1,0.4184347279323535,-0.14149137997776448,0.9336497176359342,0.5665522710763228,1.3302994159400119,2.0932931900024414,0.0
685,2,185,1,-1,-0.7299086100335872,0.257682683524843,0.9336497176359342,0.5665522710763228,1.3302994159400119,2.2632908821105957,0.0
686,2,186,1,1,2.080060041874752,-0.4767811304884321,0.9336497176359342,0.5665522710763228,1.3302994159400119,3.1763296127319336,1.0
687,2,187,-1,-1,-0.14677124713321565,1.6786886701699097,0.9336497176359342,0.5665522710763228,1.3302994159400119,1.467299461364746,1.0
688,2,188,-1,1,-0.19047482569639507,1.520050851443069,0.9336497176359342,0.5665522710763228,1.3302994159400119,1.5002995729446411,1.0
689,2,189,1,1,1.2070563127047638,-0.30062276308019775,0.9336497176359342,0.5665522710763228,1.3302994159400119,1.7962969541549683,1.0
690,2,190,1,1,0.5017065116296024,-0.15829431102735536,0.9336497176359342,0.5665522710763228,1.3302994159400119,1.975294589996338,1.0
691,2,191,1,1,-0.2522387129818613,-0.006160069849413044,0.9336497176359342,0.5665522710763228,1.3302994159400119,2.1292927265167236,1.0
692,2,192,-1,1,-0.16583559305167817,1.5150790433604029,0.9336497176359342,0.5665522710763228,1.3302994159400119,1.567299723625183,1.0
693,2,193,1,1,1.8785360024440574,-0.43611676149040307,0.9336497176359342,0.5665522710763228,1.3302994159400119,2.0312938690185547,0.0
694,2,194,-1,1,-0.9977341293981588,1.682943031927124,0.9336497176359342,0.5665522710763228,1.3302994159400119,1.9872944355010986,1.0
695,2,195,-1,-1,-0.29762294884093277,1.7091281615554168,0.9336497176359342,0.5665522710763228,1.3302994159400119,1.4892995357513428,1.0
696,2,196,-1,1,3.1644756837872605,0.8430748148710799,0.9336497176359342,0.5665522710763228,1.3302994159400119,2.073293447494507,0.0
697,2,197,1,1,-0.6406489681357119,0.07221498646056433,0.9336497176359342,0.5665522710763228,1.3302994159400119,1.8072967529296875,1.0
698,2,198,-1,-1,-1.45808604640451,1.9432912903872497,0.9336497176359342,0.5665522710763228,1.3302994159400119,1.669298529624939,1.0
699,2,199,1,1,0.8502230322647011,-0.22861944165222436,0.9336497176359342,0.5665522710763228,1.3302994159400119,1.8242965936660767,1.0
700,2,200,1,-1,-2.535197130328067,0.621961400567963,0.9336497176359342,0.5665522710763228,1.3302994159400119,3.355334997177124,1.0
701,2,201,-1,1,0.25792072789271026,1.429571709104849,0.9336497176359342,0.5665522710763228,1.3302994159400119,1.9842945337295532,1.0
702,2,202,1,-1,-1.6327757060632484,0.4398670068087926,0.9336497176359342,0.5665522710763228,1.3302994159400119,1.9842945337295532,1.0
703,2,203,1,1,1.815469392633453,-0.42339091548196645,0.9336497176359342,0.5665522710763228,1.3302994159400119,2.737308979034424,1.0
704,2,204,1,-1,-0.6157911174041084,0.23465557548093702,0.9336497176359342,0.5665522710763228,1.3302994159400119,1.6002994775772095,1.0
705,2,205,1,-1,-2.3219617176373055,0.5789338613741282,0.9336497176359342,0.5665522710763228,1.3302994159400119,2.0442938804626465,1.0
706,2,206,-1,1,1.9570919577681973,1.0867057856265034,0.9336497176359342,0.5665522710763228,1.3302994159400119,1.6082993745803833,1.0
707,2,207,-1,-1,1.0812892012971198,1.4308854633270345,0.9336497176359342,0.5665522710763228,1.3302994159400119,1.9092955589294434,1.0
708,2,208,1,-1,-2.249610661925134,0.56433456078851,0.9336497176359342,0.5665522710763228,1.3302994159400119,1.4932994842529297,1.0
709,2,209,1,1,0.47425435342792155,-0.15275489898470754,0.9336497176359342,0.5665522710763228,1.3302994159400119,2.111292839050293,0.0
710,2,210,1,-1,-0.17095289124673785,0.14489424564657272,0.9336497176359342,0.5665522710763228,1.3302994159400119,2.1482925415039062,0.0
711,2,211,1,-1,-1.514522011657216,0.4160052785589437,0.9336497176359342,0.5665522710763228,1.3302994159400119,1.8902957439422607,1.0
712,2,212,-1,-1,-1.0869460627217737,1.8684011021544578,0.9336497176359342,0.5665522710763228,1.3302994159400119,2.008294105529785,1.0
713,2,213,1,1,0.6475773917341711,-0.18772875126285588,0.9336497176359342,0.5665522710763228,1.3302994159400119,1.6062994003295898,1.0
714,2,214,1,1,1.3088592024413757,-0.3211649787136777,0.9336497176359342,0.5665522710763228,1.3302994159400119,3.1863300800323486,1.0
715,2,215,-1,1,0.44225368845682267,1.3923762283668994,0.9336497176359342,0.5665522710763228,1.3302994159400119,2.070293426513672,1.0
716,2,216,-1,-1,-0.5333270307461027,1.756689523405896,0.9336497176359342,0.5665522710763228,1.3302994159400119,2.2212915420532227,1.0
717,2,217,1,-1,-2.1635555874358428,0.5469700056065517,0.9336497176359342,0.5665522710763228,1.3302994159400119,1.7052980661392212,1.0
718,2,218,1,-1,-0.30858925048620867,0.17266708959844246,0.9336497176359342,0.5665522710763228,1.3302994159400119,2.3502910137176514,1.0
719,2,219,1,1,0.014273651375177998,-0.05993805662145228,0.9336497176359342,0.5665522710763228,1.3302994159400119,2.3892927169799805,1.0
720,2,220,-1,1,2.575928824502554,0.9618342776438329,0.9336497176359342,0.5665522710763228,1.3302994159400119,1.8652961254119873,1.0
721,2,221,1,1,1.5928610487450885,-0.37847206677543427,0.9336497176359342,0.5665522710763228,1.3302994159400119,1.8882957696914673,1.0
722,2,222,-1,-1,0.011170007301820606,1.6468186189913918,0.9336497176359342,0.5665522710763228,1.3302994159400119,1.4862995147705078,1.0
723,2,223,1,-1,0.5113999490706598,0.007206217141852503,0.9336497176359342,0.5665522710763228,1.3302994159400119,5.165204048156738,0.0
724,2,224,-1,1,1.7754610493046785,1.1233560349172231,0.9336497176359342,0.5665522710763228,1.3302994159400119,1.8862957954406738,1.0
725,2,225,1,1,0.019057357790039586,-0.06090333303900379,0.9336497176359342,0.5665522710763228,1.3302994159400119,1.4232994318008423,1.0
726,2,226,-1,1,1.303463594284626,1.2185976682791169,0.9336497176359342,0.5665522710763228,1.3302994159400119,1.7852970361709595,1.0
727,2,227,1,-1,-1.414846493971899,0.39589233301321275,0.9336497176359342,0.5665522710763228,1.3302994159400119,1.9972944259643555,1.0
728,2,228,-1,-1,-0.11643032865742786,1.6725663519188265,0.9336497176359342,0.5665522710763228,1.3302994159400119,1.5512996912002563,1.0
729,2,229,-1,1,0.32159508325082575,1.4167232296415118,0.9336497176359342,0.5665522710763228,1.3302994159400119,1.8012968301773071,1.0
730,2,230,1,-1,-2.9657618047515077,0.7088425530484955,0.9336497176359342,0.5665522710763228,1.3302994159400119,1.6192991733551025,1.0
731,2,231,-1,-1,-2.009733937176976,2.0546051239662484,0.9336497176359342,0.5665522710763228,1.3302994159400119,1.6702985763549805,1.0
732,2,232,-1,1,1.5668173907903054,1.1654570306242145,0.9336497176359342,0.5665522710763228,1.3302994159400119,1.6032993793487549,1.0
733,2,233,1,-1,-3.5018939005349585,0.8170255442003902,0.9336497176359342,0.5665522710763228,1.3302994159400119,2.535299777984619,0.0
734,2,234,1,1,1.4288031679612114,-0.3453677769841186,0.9336497176359342,0.5665522710763228,1.3302994159400119,1.5972994565963745,1.0
735,2,235,1,1,0.2207050461868859,-0.10159265244592708,0.9336497176359342,0.5665522710763228,1.3302994159400119,1.7282978296279907,0.0
736,2,236,-1,1,1.590686488744526,1.1606406235613025,0.9336497176359342,0.5665522710763228,1.3302994159400119,1.5572996139526367,1.0
737,2,237,1,1,0.42608384816282574,-0.14303485165707835,0.9336497176359342,0.5665522710763228,1.3302994159400119,2.0302939414978027,1.0
738,2,238,1,-1,-2.8262983330629456,0.6807010266553616,0.9336497176359342,0.5665522710763228,1.3302994159400119,2.512298583984375,1.0
739,2,239,-1,-1,0.4519103725637672,1.557884172778579,0.9336497176359342,0.5665522710763228,1.3302994159400119,1.7302978038787842,1.0
740,2,240,-1,-1,0.011272312745581603,1.6467979753682918,0.9336497176359342,0.5665522710763228,1.3302994159400119,1.8502962589263916,1.0
741,2,241,1,-1,-0.09432658258477311,0.1294322665239351,0.9336497176359342,0.5665522710763228,1.3302994159400119,1.6082993745803833,1.0
742,2,242,-1,1,2.3730478558067,1.0027724535410216,0.9336497176359342,0.5665522710763228,1.3302994159400119,1.4072993993759155,1.0
743,2,243,-1,-1,-1.0460389830590748,1.860146699420496,0.9336497176359342,0.5665522710763228,1.3302994159400119,1.5392996072769165,1.0
744,2,244,-1,1,1.5786467324169204,1.163070056274815,0.9336497176359342,0.5665522710763228,1.3302994159400119,1.7702972888946533,1.0
745,2,245,1,1,0.8878620407398591,-0.236214399224917,0.9336497176359342,0.5665522710763228,1.3302994159400119,1.9862945079803467,0.0
746,2,246,-1,1,1.6500828712421047,1.148655371470024,0.9336497176359342,0.5665522710763228,1.3302994159400119,1.6442989110946655,1.0
747,2,247,-1,-1,-2.7940078585870394,2.2128592172538033,0.9336497176359342,0.5665522710763228,1.3302994159400119,1.6312990188598633,1.0
748,2,248,-1,-1,-1.7007004544354902,1.9922470469326272,0.9336497176359342,0.5665522710763228,1.3302994159400119,2.0032942295074463,1.0
749,2,249,1,-1,-0.5636624747594858,0.2241368385309647,0.9336497176359342,0.5665522710763228,1.3302994159400119,2.8653149604797363,0.0
750,2,250,1,1,1.8585793331230622,-0.4320898207465933,0.9336497176359342,0.5665522710763228,1.3302994159400119,4.062283515930176,0.0
