,subj_idx,trial_idx,S,X,M,v,a,z,t,rt,response
0,1,0,-1,-1,-0.7507195390597989,-1.0169024535840538,1,0.42173371084238775,0.001,0.09800001978874207,0.0
1,1,1,1,1,0.9255590211222664,1.5261943221352818,1,0.42173371084238775,0.001,0.40799829363822937,1.0
2,1,2,-1,1,0.584534704786593,-1.1852133888137195,1,0.42173371084238775,0.001,0.24600031971931458,0.0
3,1,3,1,1,-0.23024686606651446,1.6718855047046117,1,0.42173371084238775,0.001,0.4169981777667999,1.0
4,1,4,1,1,0.35778683567785646,1.5977629151354127,1,0.42173371084238775,0.001,0.331999272108078,1.0
5,1,5,-1,-1,-1.4020932403517135,-0.9347957556621387,1,0.42173371084238775,0.001,0.1710001677274704,0.0
6,1,6,-1,-1,-1.7556792589115362,-0.8902256719180094,1,0.42173371084238775,0.001,0.5299967527389526,0.0
7,1,7,-1,1,1.7052820236715869,-1.3264853827182557,1,0.42173371084238775,0.001,1.1749988794326782,0.0
8,1,8,1,-1,-0.8092241113558843,1.7448665134379266,1,0.42173371084238775,0.001,0.31599947810173035,1.0
9,1,9,1,1,1.245017959074534,1.4859260115404889,1,0.42173371084238775,0.001,1.132996916770935,1.0
10,1,10,-1,-1,1.662519767910056,-1.3210951319155169,1,0.42173371084238775,0.001,1.0389925241470337,0.0
11,1,11,-1,1,1.27043341604793,-1.2716720195181346,1,0.42173371084238775,0.001,0.5019971132278442,0.0
12,1,12,-1,1,0.12645081172170625,-1.1274711806831554,1,0.42173371084238775,0.001,0.25600025057792664,0.0
13,1,13,-1,-1,-1.8374832275285646,-0.879914150702568,1,0.42173371084238775,0.001,0.6339954137802124,0.0
14,1,14,-1,-1,-0.1928988455466038,-1.0872166450935379,1,0.42173371084238775,0.001,2.787980318069458,0.0
15,1,15,1,-1,-0.08855510095381991,1.6540250308582516,1,0.42173371084238775,0.001,0.3639988601207733,1.0
16,1,16,1,1,1.0450408308323607,1.5111334487264028,1,0.42173371084238775,0.001,0.44899776577949524,1.0
17,1,17,1,-1,0.8417534210428455,1.536758152201246,1,0.42173371084238775,0.001,0.6179956197738647,1.0
18,1,18,1,1,0.6475039795201909,1.5612436053059202,1,0.42173371084238775,0.001,0.28799983859062195,0.0
19,1,19,-1,1,1.285926619404309,-1.273624962606414,1,0.42173371084238775,0.001,0.44599780440330505,0.0
20,1,20,1,-1,0.028572789199081017,1.6392608727782716,1,0.42173371084238775,0.001,0.23700030148029327,1.0
21,1,21,-1,1,0.6985591177165807,-1.1995863486209664,1,0.42173371084238775,0.001,0.7509939074516296,0.0
22,1,22,1,1,0.1414859136571493,1.6250279926621254,1,0.42173371084238775,0.001,0.2939997613430023,1.0
23,1,23,-1,-1,-0.2961409813220246,-1.0742028085844602,1,0.42173371084238775,0.001,0.6099957227706909,0.0
24,1,24,1,1,0.4947819304278379,1.5804944641078205,1,0.42173371084238775,0.001,0.5649963021278381,1.0
25,1,25,-1,-1,-1.195899331071009,-0.9607868280512624,1,0.42173371084238775,0.001,1.264003038406372,0.0
26,1,26,-1,-1,1.2354834011131846,-1.2672665141793067,1,0.42173371084238775,0.001,1.234001636505127,0.0
27,1,27,1,-1,-0.33140256588387684,1.6846363426207127,1,0.42173371084238775,0.001,2.1640255451202393,1.0
28,1,28,1,1,-0.350804985743184,1.6870820487079905,1,0.42173371084238775,0.001,1.4480116367340088,1.0
29,1,29,-1,1,-0.5909841855915814,-1.0370373506310988,1,0.42173371084238775,0.001,0.2380003035068512,0.0
30,1,30,1,1,0.7170682871778438,1.5524749129505708,1,0.42173371084238775,0.001,0.9739910364151001,1.0
31,1,31,1,-1,-0.8458713330245196,1.7494859544028538,1,0.42173371084238775,0.001,0.48399731516838074,1.0
32,1,32,1,-1,0.7025823995742551,1.5543008822754603,1,0.42173371084238775,0.001,0.719994306564331,1.0
33,1,33,1,-1,0.2291482524295092,1.6139780145091311,1,0.42173371084238775,0.001,1.003990888595581,1.0
34,1,34,-1,-1,-1.8380860728147237,-0.8798381610890694,1,0.42173371084238775,0.001,0.3919984996318817,0.0
35,1,35,-1,1,1.2700009837392658,-1.2716175107332868,1,0.42173371084238775,0.001,0.6399953365325928,0.0
36,1,36,-1,-1,0.4629249222049465,-1.169884281017416,1,0.42173371084238775,0.001,0.5629963278770447,0.0
37,1,37,1,-1,0.42648617143640566,1.589103253872798,1,0.42173371084238775,0.001,0.45299771428108215,1.0
38,1,38,-1,-1,0.13285709649819322,-1.1282787031359374,1,0.42173371084238775,0.001,0.4789973795413971,0.0
39,1,39,1,-1,-1.559664242351596,1.8394606934331272,1,0.42173371084238775,0.001,0.3879985511302948,1.0
40,1,40,1,1,0.58450427868437,1.5691848184611925,1,0.42173371084238775,0.001,0.24800032377243042,1.0
41,1,41,-1,1,0.24398981073129145,-1.1422871596927215,1,0.42173371084238775,0.001,1.0239918231964111,1.0
42,1,42,-1,1,0.0698954189030101,-1.1203422828710239,1,0.42173371084238775,0.001,0.19900022447109222,0.0
43,1,43,1,-1,-0.016288538525007223,1.6449157149625848,1,0.42173371084238775,0.001,0.4959971606731415,1.0
44,1,44,1,1,0.8657525930148866,1.533733018150583,1,0.42173371084238775,0.001,0.4799973666667938,1.0
45,1,45,-1,-1,0.08914388341097279,-1.1227685826397764,1,0.42173371084238775,0.001,0.08699999749660492,0.0
46,1,46,1,1,1.8705480064577709,1.4070769475704352,1,0.42173371084238775,0.001,2.3940088748931885,1.0
47,1,47,1,-1,-0.5715137415847737,1.7149027407449353,1,0.42173371084238775,0.001,0.23300029337406158,1.0
48,1,48,-1,1,1.6872738441729602,-1.3242154228606737,1,0.42173371084238775,0.001,0.35499897599220276,0.0
49,1,49,-1,-1,-1.4523141540839384,-0.9284653290805988,1,0.42173371084238775,0.001,0.24600031971931458,0.0
50,1,50,-1,-1,-1.4313145822840274,-0.9311123587270906,1,0.42173371084238775,0.001,0.2889998257160187,0.0
51,1,51,1,1,1.161150311137715,1.496497662838219,1,0.42173371084238775,0.001,0.5199968814849854,1.0
52,1,52,1,1,-0.09897024439912627,1.6553378763645732,1,0.42173371084238775,0.001,1.5520164966583252,1.0
53,1,53,-1,-1,-1.1727979364716252,-0.963698795826726,1,0.42173371084238775,0.001,0.8169930577278137,0.0
54,1,54,-1,-1,0.2728946616717074,-1.1459306624315266,1,0.42173371084238775,0.001,1.0449928045272827,0.0
55,1,55,1,1,0.5103093173245435,1.5785372121295538,1,0.42173371084238775,0.001,0.7329941391944885,1.0
56,1,56,-1,-1,-0.6870791234669114,-1.024924429860263,1,0.42173371084238775,0.001,0.8509926199913025,0.0
57,1,57,-1,-1,-1.465241499803506,-0.9268358164554751,1,0.42173371084238775,0.001,0.30599960684776306,0.0
58,1,58,-1,1,1.3020569884008806,-1.275658221443766,1,0.42173371084238775,0.001,1.130996823310852,0.0
59,1,59,-1,1,1.172338253369066,-1.2593069672083774,1,0.42173371084238775,0.001,0.38899853825569153,0.0
60,1,60,1,-1,-0.38633313452374457,1.6915604287436976,1,0.42173371084238775,0.001,0.23600029945373535,1.0
61,1,61,-1,-1,-2.1962090345906264,-0.8346961883887346,1,0.42173371084238775,0.001,0.4469977915287018,0.0
62,1,62,-1,-1,-2.1947997250339304,-0.8348738341147144,1,0.42173371084238775,0.001,0.44299784302711487,0.0
63,1,63,1,1,3.254176875283599,1.2326683134124972,1,0.42173371084238775,0.001,0.34699907898902893,1.0
64,1,64,1,-1,-0.290313548792347,1.6794570062312464,1,0.42173371084238775,0.001,0.6349954009056091,1.0
65,1,65,1,-1,-0.5056626084952964,1.706602099988838,1,0.42173371084238775,0.001,1.4640123844146729,1.0
66,1,66,1,-1,0.02624441994991733,1.6395543674499364,1,0.42173371084238775,0.001,0.5479965209960938,1.0
67,1,67,1,-1,-1.1638781740122308,1.789571225850402,1,0.42173371084238775,0.001,0.36099889874458313,1.0
68,1,68,1,1,-1.3682955564781905,1.81533836419024,1,0.42173371084238775,0.001,0.26400014758110046,1.0
69,1,69,-1,1,0.8274087667622918,-1.2158280531763668,1,0.42173371084238775,0.001,0.2430003136396408,0.0
70,1,70,1,1,1.4311664072050034,1.462461701622898,1,0.42173371084238775,0.001,0.2110002487897873,1.0
71,1,71,1,-1,0.011124831081031572,1.6414602158338962,1,0.42173371084238775,0.001,0.2680000960826874,0.0
72,1,72,-1,1,0.36523071136609325,-1.1575697693290312,1,0.42173371084238775,0.001,0.390998512506485,0.0
73,1,73,-1,1,-0.20688964465580484,-1.0854530824660218,1,0.42173371084238775,0.001,1.6890228986740112,0.0
74,1,74,1,1,-1.4118910043908812,1.8208336401976049,1,0.42173371084238775,0.001,0.3659988343715668,1.0
75,1,75,1,-1,-0.9994323478726932,1.7688425661814913,1,0.42173371084238775,0.001,0.6229955554008484,1.0
76,1,76,1,1,0.9829037928505671,1.518965921847769,1,0.42173371084238775,0.001,2.2670180797576904,1.0
77,1,77,1,1,1.361830957228592,1.471201546101117,1,0.42173371084238775,0.001,0.34799906611442566,1.0
78,1,78,1,1,2.2590263815074505,1.3581086264267697,1,0.42173371084238775,0.001,0.39999839663505554,1.0
79,1,79,1,-1,-0.9644151377948949,1.7644285907872996,1,0.42173371084238775,0.001,0.9379914999008179,1.0
80,1,80,-1,-1,-0.5104861172487537,-1.0471842610261812,1,0.42173371084238775,0.001,0.20600023865699768,0.0
81,1,81,-1,-1,0.3296701642539783,-1.1530873054317607,1,0.42173371084238775,0.001,1.098995327949524,1.0
82,1,82,-1,1,2.2045328732091845,-1.389416751622068,1,0.42173371084238775,0.001,0.5379966497421265,0.0
83,1,83,-1,-1,-2.6083827701779594,-0.7827410291121244,1,0.42173371084238775,0.001,0.20900024473667145,0.0
84,1,84,1,1,2.142382642562078,1.3728117564718962,1,0.42173371084238775,0.001,1.2760035991668701,1.0
85,1,85,-1,-1,-0.12958218179576197,-1.0951978119317183,1,0.42173371084238775,0.001,0.08299998939037323,0.0
86,1,86,-1,1,1.7323880909342764,-1.3299021458945623,1,0.42173371084238775,0.001,1.2530025243759155,0.0
87,1,87,1,1,2.379501836473924,1.3429225024424603,1,0.42173371084238775,0.001,0.2889998257160187,1.0
88,1,88,1,-1,-0.9762848315496493,1.7659247846889174,1,0.42173371084238775,0.001,0.2859998643398285,1.0
89,1,89,-1,-1,-1.6171042676176532,-0.9076932714344348,1,0.42173371084238775,0.001,0.26700010895729065,0.0
90,1,90,1,1,0.6193867420763925,1.5647878281024776,1,0.42173371084238775,0.001,0.5319967269897461,1.0
91,1,91,-1,-1,-1.93629286724335,-0.867459037418528,1,0.42173371084238775,0.001,1.132996916770935,0.0
92,1,92,-1,-1,1.3633101354402828,-1.2833792786967007,1,0.42173371084238775,0.001,0.837992787361145,0.0
93,1,93,1,1,0.7199942634269574,1.5521060889597709,1,0.42173371084238775,0.001,0.8759922981262207,1.0
94,1,94,1,-1,0.30116062306147307,1.6049007398964277,1,0.42173371084238775,0.001,0.39699843525886536,1.0
95,1,95,-1,-1,-0.8655808128214276,-1.0024240061291327,1,0.42173371084238775,0.001,0.1710001677274704,0.0
96,1,96,-1,1,0.3901669365845573,-1.1607130204416636,1,0.42173371084238775,0.001,0.5399966239929199,0.0
97,1,97,1,1,-0.08562095059165864,1.6536551765074148,1,0.42173371084238775,0.001,0.6099957227706909,1.0
98,1,98,-1,-1,-2.041471564034545,-0.8542010942929041,1,0.42173371084238775,0.001,0.6229955554008484,0.0
99,1,99,1,1,-0.37312037562518574,1.6898949393304048,1,0.42173371084238775,0.001,1.1509977579116821,1.0
100,1,100,1,1,-0.6994088073396789,1.7310241185482056,1,0.42173371084238775,0.001,0.48799726366996765,1.0
101,1,101,1,1,1.422660252047283,1.4635339160992065,1,0.42173371084238775,0.001,0.8579925298690796,1.0
102,1,102,-1,1,0.19440354706334545,-1.1360367317678828,1,0.42173371084238775,0.001,0.4819973409175873,0.0
103,1,103,-1,-1,-0.06625586500415426,-1.1031801955511422,1,0.42173371084238775,0.001,0.5239968299865723,0.0
104,1,104,-1,-1,0.7739102420862964,-1.2090844784877848,1,0.42173371084238775,0.001,1.0919950008392334,0.0
105,1,105,1,-1,-1.9004725088862722,1.8824201210768197,1,0.42173371084238775,0.001,0.251000314950943,1.0
106,1,106,-1,1,0.45379612531814273,-1.1687335815542832,1,0.42173371084238775,0.001,0.1850001960992813,0.0
107,1,107,-1,-1,-0.8641529003184117,-1.00260399678628,1,0.42173371084238775,0.001,0.6129956841468811,0.0
108,1,108,-1,-1,-1.7345119461642395,-0.8928938455794789,1,0.42173371084238775,0.001,0.91899174451828,0.0
109,1,109,1,1,-0.5876270150791623,1.7169338446668667,1,0.42173371084238775,0.001,0.24400031566619873,0.0
110,1,110,1,-1,-0.5220112933770784,1.708662877893053,1,0.42173371084238775,0.001,0.6229955554008484,1.0
111,1,111,1,-1,-1.0284270410028684,1.7724973936721562,1,0.42173371084238775,0.001,0.5039970874786377,1.0
112,1,112,1,1,0.4152953440201226,1.5905138755855608,1,0.42173371084238775,0.001,1.61501944065094,1.0
113,1,113,1,-1,-0.006936639606144213,1.6437368931311163,1,0.42173371084238775,0.001,0.2720000445842743,1.0
114,1,114,1,-1,-1.6771660939478414,1.8542719899517672,1,0.42173371084238775,0.001,0.3519990146160126,1.0
115,1,115,-1,-1,-0.9706377175258727,-0.9891814150910374,1,0.42173371084238775,0.001,0.5009971261024475,0.0
116,1,116,1,-1,-0.6333499869500556,1.7226972984754096,1,0.42173371084238775,0.001,0.18600019812583923,0.0
117,1,117,1,-1,0.6118594297036508,1.565736657878575,1,0.42173371084238775,0.001,1.1079957485198975,1.0
118,1,118,1,-1,-1.1765408196263065,1.7911673726034334,1,0.42173371084238775,0.001,0.5499964952468872,1.0
119,1,119,1,1,0.7656152671260789,1.5463554884025346,1,0.42173371084238775,0.001,0.31999942660331726,0.0
120,1,120,1,-1,-0.045036527538803606,1.6485394450043975,1,0.42173371084238775,0.001,0.5479965209960938,1.0
121,1,121,1,-1,-0.7406393192426863,1.7362212905851973,1,0.42173371084238775,0.001,0.36499884724617004,1.0
122,1,122,1,-1,0.6572901167782714,1.5600100470365612,1,0.42173371084238775,0.001,0.17400017380714417,1.0
123,1,123,-1,-1,-1.5286531130122585,-0.9188426810861074,1,0.42173371084238775,0.001,0.6699949502944946,1.0
124,1,124,1,1,0.5936804451748338,1.5680281479836782,1,0.42173371084238775,0.001,0.6229955554008484,1.0
125,1,125,1,1,0.7277645110102476,1.5511266368114351,1,0.42173371084238775,0.001,0.47799739241600037,0.0
126,1,126,-1,1,1.3549300895811647,-1.2823229604993867,1,0.42173371084238775,0.001,0.7749935984611511,0.0
127,1,127,-1,-1,-2.676051693856092,-0.7742112529419753,1,0.42173371084238775,0.001,0.3449991047382355,0.0
128,1,128,-1,-1,1.43778343600667,-1.2927667574676804,1,0.42173371084238775,0.001,0.09600001573562622,0.0
129,1,129,-1,1,0.10644469804842027,-1.124949378024089,1,0.42173371084238775,0.001,0.2070002406835556,0.0
130,1,130,1,1,-1.0118408391617049,1.7704066763749375,1,0.42173371084238775,0.001,0.2939997613430023,1.0
131,1,131,1,-1,-0.8065315796871839,1.7445271155102413,1,0.42173371084238775,0.001,0.6989945769309998,1.0
132,1,132,-1,-1,-0.5521250675407287,-1.0419356046763346,1,0.42173371084238775,0.001,0.09000000357627869,0.0
133,1,133,-1,-1,-0.16259305579304079,-1.0910367384126967,1,0.42173371084238775,0.001,1.2610028982162476,0.0
134,1,134,1,1,2.336616699404822,1.3483282426307561,1,0.42173371084238775,0.001,0.7539938688278198,1.0
135,1,135,1,1,0.5325737689060397,1.5757307423614724,1,0.42173371084238775,0.001,0.3979984223842621,1.0
136,1,136,-1,1,0.6036157593350295,-1.187618586289044,1,0.42173371084238775,0.001,0.16300015151500702,0.0
137,1,137,1,1,1.4294882653375498,1.4626732340920594,1,0.42173371084238775,0.001,1.625019907951355,1.0
138,1,138,-1,-1,-0.7197691196946754,-1.0208038034978262,1,0.42173371084238775,0.001,1.6000187397003174,0.0
139,1,139,-1,-1,0.25887193065156056,-1.1441630747355114,1,0.42173371084238775,0.001,0.5539964437484741,0.0
140,1,140,-1,-1,-2.2514054304710065,-0.8277385943164837,1,0.42173371084238775,0.001,0.2899998128414154,0.0
141,1,141,-1,-1,-1.9183128714137596,-0.8697254446795051,1,0.42173371084238775,0.001,0.2680000960826874,0.0
142,1,142,1,-1,-0.988227597041802,1.767430189400025,1,0.42173371084238775,0.001,0.1660001575946808,1.0
143,1,143,-1,-1,-0.6990610476436,-1.0234140891342753,1,0.42173371084238775,0.001,1.2170008420944214,1.0
144,1,144,-1,1,-0.9991051294519064,-0.9855930522403518,1,0.42173371084238775,0.001,0.30999955534935,0.0
145,1,145,1,-1,0.1235096302049058,1.6272939319719941,1,0.42173371084238775,0.001,0.27699998021125793,1.0
146,1,146,1,-1,-0.9860243990946254,1.7671524727713799,1,0.42173371084238775,0.001,0.789993405342102,1.0
147,1,147,1,-1,-0.4207926499882617,1.695904105838995,1,0.42173371084238775,0.001,0.7319941520690918,1.0
148,1,148,1,1,1.344053422096893,1.4734424328669777,1,0.42173371084238775,0.001,0.6929946541786194,1.0
149,1,149,1,1,2.799461179398797,1.2899859548958998,1,0.42173371084238775,0.001,0.524996817111969,1.0
150,1,150,-1,-1,0.28727825451743716,-1.14774373733841,1,0.42173371084238775,0.001,0.36499884724617004,0.0
151,1,151,1,-1,-0.1667749790007001,1.6638847717190606,1,0.42173371084238775,0.001,0.2520003020763397,1.0
152,1,152,1,1,-0.42954978343403183,1.697007956530338,1,0.42173371084238775,0.001,0.782993495464325,1.0
153,1,153,1,1,2.203350590311001,1.3651266490461416,1,0.42173371084238775,0.001,1.1959998607635498,1.0
154,1,154,-1,-1,-0.31941958450485014,-1.071268503383336,1,0.42173371084238775,0.001,0.22100026905536652,0.0
155,1,155,-1,1,1.4107758932933496,-1.2893624134685633,1,0.42173371084238775,0.001,0.32699933648109436,0.0
156,1,156,-1,1,0.8630314957780986,-1.2203183552021533,1,0.42173371084238775,0.001,0.14700011909008026,0.0
157,1,157,1,1,1.2716468956511424,1.4825693914510671,1,0.42173371084238775,0.001,1.3480069637298584,1.0
158,1,158,-1,-1,-3.5375535964655835,-0.6656175588207376,1,0.42173371084238775,0.001,0.40399834513664246,0.0
159,1,159,-1,1,1.3886825103003724,-1.2865775071699521,1,0.42173371084238775,0.001,0.6249955296516418,0.0
160,1,160,1,-1,-0.21411864430262345,1.6698525165293767,1,0.42173371084238775,0.001,1.23600172996521,1.0
161,1,161,1,1,1.8429701939354028,1.4105531749920064,1,0.42173371084238775,0.001,0.21200025081634521,1.0
162,1,162,1,1,-2.4061418172466227,1.9461605469914367,1,0.42173371084238775,0.001,0.4929971992969513,1.0
163,1,163,-1,1,0.6387654800290455,-1.1920492648585643,1,0.42173371084238775,0.001,0.5739961862564087,1.0
164,1,164,-1,-1,-1.076290616285074,-0.9758636980481309,1,0.42173371084238775,0.001,0.23300029337406158,0.0
165,1,165,1,-1,0.07720949911792074,1.6331301376237795,1,0.42173371084238775,0.001,1.383008599281311,1.0
166,1,166,1,1,-0.15598771900908748,1.6625250203263042,1,0.42173371084238775,0.001,0.39699843525886536,1.0
167,1,167,1,1,1.5382641924195064,1.4489618543289826,1,0.42173371084238775,0.001,0.4029983580112457,1.0
168,1,168,-1,1,-2.1733014273218543,-0.8375837289609138,1,0.42173371084238775,0.001,0.6459952592849731,0.0
169,1,169,1,-1,-0.2893653271552472,1.6793374813757511,1,0.42173371084238775,0.001,0.5879960060119629,1.0
170,1,170,1,1,-0.5783145088231743,1.7157599883436228,1,0.42173371084238775,0.001,0.31299951672554016,0.0
171,1,171,-1,1,0.030982493328179594,-1.1154372463012427,1,0.42173371084238775,0.001,0.16800016164779663,0.0
172,1,172,-1,1,1.674730584604706,-1.3226343249098595,1,0.42173371084238775,0.001,0.988990843296051,0.0
173,1,173,1,-1,-1.0331413032274677,1.77309163397328,1,0.42173371084238775,0.001,0.7819935083389282,1.0
174,1,174,1,-1,-2.85767449225592,2.003076963597344,1,0.42173371084238775,0.001,0.3279993236064911,1.0
175,1,175,-1,1,0.47567961091922506,-1.1714920299505924,1,0.42173371084238775,0.001,0.3569989502429962,0.0
176,1,176,1,-1,1.4911687869970702,1.454898305584016,1,0.42173371084238775,0.001,0.5049970746040344,1.0
177,1,177,-1,1,-0.09761632366685635,-1.0992271595274214,1,0.42173371084238775,0.001,1.3820085525512695,0.0
178,1,178,-1,1,2.2218730516220004,-1.3916025088732886,1,0.42173371084238775,0.001,0.26300016045570374,0.0
179,1,179,1,1,-0.24424503367192973,1.673649996142873,1,0.42173371084238775,0.001,0.41099825501441956,1.0
180,1,180,-1,-1,-1.059389328399112,-0.9779941324457612,1,0.42173371084238775,0.001,0.6079957485198975,0.0
181,1,181,-1,-1,0.9768203941389628,-1.2346616280208942,1,0.42173371084238775,0.001,0.6139956712722778,0.0
182,1,182,1,-1,-1.576876781246502,1.8416303615187595,1,0.42173371084238775,0.001,0.561996340751648,1.0
183,1,183,1,1,1.3189065249734189,1.4766122395105303,1,0.42173371084238775,0.001,0.460997611284256,0.0
184,1,184,-1,-1,-1.1853574029434255,-0.9621156549697721,1,0.42173371084238775,0.001,0.2869998514652252,0.0
185,1,185,1,-1,-1.0651217469427259,1.777122820105495,1,0.42173371084238775,0.001,0.17300017178058624,1.0
186,1,186,1,-1,0.44215136270610067,1.587128631432686,1,0.42173371084238775,0.001,0.583996057510376,1.0
187,1,187,1,1,1.1687495076314482,1.4955397719535812,1,0.42173371084238775,0.001,0.874992311000824,1.0
188,1,188,1,-1,-0.8282067294142031,1.7472593028360712,1,0.42173371084238775,0.001,0.8559925556182861,1.0
189,1,189,1,-1,-0.7027997450320767,1.7314515516733526,1,0.42173371084238775,0.001,0.8389927744865417,1.0
190,1,190,1,-1,-1.583837926617646,1.8425078250378506,1,0.42173371084238775,0.001,0.49499717354774475,1.0
191,1,191,1,-1,-1.3547794220601168,1.8136346338069966,1,0.42173371084238775,0.001,0.2110002487897873,1.0
192,1,192,1,-1,-0.5072248749112783,1.7067990261718204,1,0.42173371084238775,0.001,0.32599934935569763,1.0
193,1,193,-1,-1,-1.4964911173376554,-0.9228967521334694,1,0.42173371084238775,0.001,0.342999130487442,0.0
194,1,194,-1,-1,-0.5414428087459247,-1.0432821205001224,1,0.42173371084238775,0.001,0.4759974181652069,0.0
195,1,195,1,-1,0.8179947793317492,1.5397529670274186,1,0.42173371084238775,0.001,0.675994873046875,0.0
196,1,196,-1,-1,0.15155926441792988,-1.1306361413451023,1,0.42173371084238775,0.001,0.25300028920173645,0.0
197,1,197,-1,-1,-1.1265324272393187,-0.9695306373382981,1,0.42173371084238775,0.001,0.5659962892532349,0.0
198,1,198,1,-1,-2.6651453906182896,1.978808362089507,1,0.42173371084238775,0.001,0.6159956455230713,1.0
199,1,199,-1,1,0.3263547736789016,-1.152669395141706,1,0.42173371084238775,0.001,0.3069995939731598,0.0
200,1,200,-1,1,-0.6132183788619265,-1.0342346949715828,1,0.42173371084238775,0.001,0.11400005221366882,0.0
201,1,201,1,-1,-2.3092443643958758,1.9339464679230927,1,0.42173371084238775,0.001,0.8389927744865417,1.0
202,1,202,-1,-1,-0.9039071767080669,-0.9975929065992557,1,0.42173371084238775,0.001,2.0360348224639893,0.0
203,1,203,-1,-1,-1.223219487650049,-0.9573430785738646,1,0.42173371084238775,0.001,0.9859908819198608,0.0
204,1,204,-1,1,2.703356246686144,-1.4522942364840312,1,0.42173371084238775,0.001,0.18800020217895508,0.0
205,1,205,-1,-1,-1.442525194158499,-0.9296992431516976,1,0.42173371084238775,0.001,0.0679999589920044,0.0
206,1,206,-1,-1,-1.6030614094818039,-0.9094633961856087,1,0.42173371084238775,0.001,0.2160002589225769,0.0
207,1,207,-1,-1,0.12985399675006037,-1.1279001576046082,1,0.42173371084238775,0.001,0.1710001677274704,0.0
208,1,208,-1,1,1.120117054596348,-1.252724401494951,1,0.42173371084238775,0.001,0.38899853825569153,0.0
209,1,209,-1,1,0.36297089587230486,-1.1572849159679888,1,0.42173371084238775,0.001,1.6760222911834717,0.0
210,1,210,1,1,1.3409646782634304,1.4738317739723819,1,0.42173371084238775,0.001,1.136997103691101,0.0
211,1,211,-1,1,1.67977616174612,-1.3232703279866957,1,0.42173371084238775,0.001,0.6779948472976685,0.0
212,1,212,-1,-1,-1.1553210054088319,-0.9659017909684224,1,0.42173371084238775,0.001,0.7269942164421082,0.0
213,1,213,-1,-1,-0.13427601163046432,-1.094606147166054,1,0.42173371084238775,0.001,0.4579976499080658,0.0
214,1,214,1,1,-1.352468650989147,1.8133433574138684,1,0.42173371084238775,0.001,0.3389991819858551,1.0
215,1,215,1,1,0.35557146381057864,1.5980421663061777,1,0.42173371084238775,0.001,1.2610028982162476,1.0
216,1,216,1,1,1.751258530632657,1.4221135769851787,1,0.42173371084238775,0.001,0.8709923624992371,1.0
217,1,217,-1,-1,-0.08427008719381579,-1.1009094740026806,1,0.42173371084238775,0.001,0.3289993107318878,0.0
218,1,218,-1,1,0.69640582861221,-1.1993149230818625,1,0.42173371084238775,0.001,0.2290002852678299,0.0
219,1,219,1,-1,-0.23738556447927778,1.6727853490688682,1,0.42173371084238775,0.001,0.8369928002357483,1.0
220,1,220,1,1,-1.7176634473006707,1.8593767461796944,1,0.42173371084238775,0.001,0.6899946928024292,0.0
221,1,221,-1,-1,0.09020574770046663,-1.1229024323335524,1,0.42173371084238775,0.001,0.1620001494884491,0.0
222,1,222,-1,-1,-0.037405348180816755,-1.1068168493874986,1,0.42173371084238775,0.001,0.14600011706352234,0.0
223,1,223,-1,-1,1.5176873278290532,-1.3028387709610616,1,0.42173371084238775,0.001,0.1530001312494278,0.0
224,1,224,1,1,0.2877605336097051,1.606589842625876,1,0.42173371084238775,0.001,0.34399911761283875,1.0
225,1,225,-1,1,2.746446118321174,-1.4577257837921502,1,0.42173371084238775,0.001,0.8699923753738403,0.0
226,1,226,1,-1,0.45016845467990363,1.586118064153719,1,0.42173371084238775,0.001,0.9159917831420898,1.0
227,1,227,1,-1,0.24924557588831664,1.611444714710569,1,0.42173371084238775,0.001,0.6839947700500488,1.0
228,1,228,1,-1,-2.2401856774698343,1.925241509870481,1,0.42173371084238775,0.001,1.0499930381774902,1.0
229,1,229,1,1,1.2415326836042015,1.486365336093583,1,0.42173371084238775,0.001,1.1139960289001465,0.0
230,1,230,-1,1,0.18928097193496868,-1.1353910229715134,1,0.42173371084238775,0.001,0.3989984095096588,0.0
231,1,231,-1,1,0.32277537723908517,-1.1522182064897173,1,0.42173371084238775,0.001,1.4260106086730957,0.0
232,1,232,-1,1,-0.7738662243391303,-1.0139847768458707,1,0.42173371084238775,0.001,0.6949946284294128,0.0
233,1,233,-1,1,1.482066328071109,-1.2983486869109973,1,0.42173371084238775,0.001,1.7650264501571655,0.0
234,1,234,-1,-1,-0.6136236725159527,-1.0341836070576023,1,0.42173371084238775,0.001,0.3699987828731537,0.0
235,1,235,1,-1,-2.359401039383566,1.9402687971080352,1,0.42173371084238775,0.001,0.28399989008903503,1.0
236,1,236,1,-1,-1.3653414914732234,1.8149659995667935,1,0.42173371084238775,0.001,0.6099957227706909,1.0
237,1,237,1,-1,0.7383469505399289,1.5497927033658307,1,0.42173371084238775,0.001,0.642995297908783,1.0
238,1,238,1,-1,-1.0158092077435101,1.7709068955881833,1,0.42173371084238775,0.001,1.6600215435028076,1.0
239,1,239,-1,-1,-0.7560352404815609,-1.0162324009092005,1,0.42173371084238775,0.001,3.1389548778533936,0.0
240,1,240,1,-1,-1.4641034479746127,1.8274151023054421,1,0.42173371084238775,0.001,0.9849908947944641,1.0
241,1,241,-1,1,0.10538213126611362,-1.1248154397799695,1,0.42173371084238775,0.001,0.20100022852420807,0.0
242,1,242,-1,-1,-0.9961022953309765,-0.9859715642889466,1,0.42173371084238775,0.001,1.5930184125900269,0.0
243,1,243,1,-1,-1.1490834608494764,1.7877063285693382,1,0.42173371084238775,0.001,0.32699933648109436,1.0
244,1,244,-1,-1,0.023033114793199028,-1.1144352144096512,1,0.42173371084238775,0.001,0.8869921565055847,0.0
245,1,245,1,-1,-1.966315757907237,1.8907197680334582,1,0.42173371084238775,0.001,0.6289954781532288,1.0
246,1,246,-1,1,-1.5132427385279636,-0.9207851834624484,1,0.42173371084238775,0.001,0.5659962892532349,0.0
247,1,247,1,1,1.0593717988243745,1.5093270072665848,1,0.42173371084238775,0.001,1.10299551486969,1.0
248,1,248,-1,1,-0.8367732654020701,-1.0060552436033219,1,0.42173371084238775,0.001,0.4999971091747284,0.0
249,1,249,-1,-1,-0.9685092815753853,-0.9894497078503033,1,0.42173371084238775,0.001,0.19900022447109222,0.0
250,1,250,-1,-1,0.12829554001182797,-1.1277037116376054,1,0.42173371084238775,0.001,0.5479965209960938,0.0
251,1,251,1,-1,-0.3511525477969172,1.6871258594613237,1,0.42173371084238775,0.001,0.8949920535087585,1.0
252,1,252,1,1,0.9936605986246381,1.5176100092578921,1,0.42173371084238775,0.001,0.42799803614616394,1.0
253,1,253,1,1,-1.8688378552734854,1.8784325223406444,1,0.42173371084238775,0.001,0.35399898886680603,1.0
254,1,254,-1,1,0.13643340918031133,-1.1287295030753308,1,0.42173371084238775,0.001,0.17700017988681793,0.0
255,1,255,-1,-1,-0.8848135385485051,-0.9999996902589093,1,0.42173371084238775,0.001,0.7999932765960693,0.0
256,1,256,-1,-1,-0.845476102166865,-1.0049582370955468,1,0.42173371084238775,0.001,2.768981695175171,0.0
257,1,257,1,1,0.7422784777853682,1.5492971280620185,1,0.42173371084238775,0.001,0.6369953751564026,1.0
258,1,258,-1,-1,-1.3477364913839431,-0.9416475108967486,1,0.42173371084238775,0.001,3.149954080581665,0.0
259,1,259,1,1,-0.24241525811400966,1.673419350004257,1,0.42173371084238775,0.001,1.379008412361145,1.0
260,1,260,-1,-1,1.4075839739412004,-1.2889600669238406,1,0.42173371084238775,0.001,0.8909921050071716,1.0
261,1,261,-1,-1,-0.9098035190328637,-0.9968496632089467,1,0.42173371084238775,0.001,0.18300019204616547,0.0
262,1,262,-1,1,1.052444472545349,-1.2441941641810448,1,0.42173371084238775,0.001,0.8399927616119385,0.0
263,1,263,1,-1,-0.30884025109572716,1.6817923267185424,1,0.42173371084238775,0.001,0.5509964823722839,1.0
264,1,264,1,1,2.8704170140541025,1.2810418583346086,1,0.42173371084238775,0.001,0.7889934182167053,1.0
265,1,265,1,-1,-1.5456242556121018,1.8376909306260611,1,0.42173371084238775,0.001,0.7839934825897217,1.0
266,1,266,-1,-1,-2.7683391419398897,-0.7625782723552983,1,0.42173371084238775,0.001,0.7609937787055969,0.0
267,1,267,1,-1,-1.332329325708327,1.8108047632183955,1,0.42173371084238775,0.001,1.0689939260482788,1.0
268,1,268,-1,1,0.18914762664462914,-1.1353742145841752,1,0.42173371084238775,0.001,0.38199862837791443,0.0
269,1,269,1,1,0.4079513446240714,1.5914395984674554,1,0.42173371084238775,0.001,0.48499730229377747,1.0
270,1,270,1,1,-0.3458389541952632,1.6864560724805697,1,0.42173371084238775,0.001,0.7409940361976624,1.0
271,1,271,-1,1,2.418259095116297,-1.4163572840772694,1,0.42173371084238775,0.001,0.23900030553340912,0.0
272,1,272,-1,-1,-0.21653735284995362,-1.0842369734018016,1,0.42173371084238775,0.001,0.28799983859062195,0.0
273,1,273,1,1,-0.005990639303845469,1.643617648278429,1,0.42173371084238775,0.001,0.5319967269897461,1.0
274,1,274,-1,-1,0.4439054533331044,-1.1674868465152273,1,0.42173371084238775,0.001,0.546996533870697,0.0
275,1,275,1,-1,-0.9174456375877305,1.7585080100862303,1,0.42173371084238775,0.001,0.6709949374198914,1.0
276,1,276,-1,1,1.0040056635932442,-1.2380883747602567,1,0.42173371084238775,0.001,0.9859908819198608,0.0
277,1,277,1,-1,-1.5648712478031104,1.8401170448069042,1,0.42173371084238775,0.001,0.18600019812583923,1.0
278,1,278,-1,1,0.6698125021941344,-1.1959627917099371,1,0.42173371084238775,0.001,0.675994873046875,0.0
279,1,279,1,1,-0.05550127213640765,1.6498585428153798,1,0.42173371084238775,0.001,0.36499884724617004,1.0
280,1,280,1,-1,-0.5252147600530617,1.7090666799964327,1,0.42173371084238775,0.001,0.7059944868087769,1.0
281,1,281,-1,-1,-1.431554713830319,-0.9310820897612209,1,0.42173371084238775,0.001,1.38900887966156,0.0
282,1,282,-1,1,0.6095221143334705,-1.1883630917928965,1,0.42173371084238775,0.001,0.9359915256500244,0.0
283,1,283,-1,1,-0.6967044257984443,-1.0237111450908982,1,0.42173371084238775,0.001,0.3219994008541107,0.0
284,1,284,-1,1,0.7686680834219395,-1.2084236959952472,1,0.42173371084238775,0.001,0.4539977014064789,0.0
285,1,285,-1,1,1.3174034569231132,-1.2775926683712733,1,0.42173371084238775,0.001,1.899032711982727,1.0
286,1,286,-1,1,0.9427340314914902,-1.2303649874356173,1,0.42173371084238775,0.001,0.605995774269104,0.0
287,1,287,1,1,-0.7233976723638733,1.7340479533915905,1,0.42173371084238775,0.001,0.6229955554008484,1.0
288,1,288,1,1,1.0482497735664698,1.5107289563571291,1,0.42173371084238775,0.001,0.5959959030151367,0.0
289,1,289,-1,1,2.1709886905735054,-1.3851884536953285,1,0.42173371084238775,0.001,1.2070003747940063,0.0
290,1,290,1,1,-0.6091178150913492,1.719642794415991,1,0.42173371084238775,0.001,1.1439974308013916,1.0
291,1,291,-1,-1,0.648617018849345,-1.1932910670995516,1,0.42173371084238775,0.001,0.6129956841468811,0.0
292,1,292,1,1,2.380901054670093,1.3427461287486318,1,0.42173371084238775,0.001,0.5609963536262512,1.0
293,1,293,1,-1,0.627835840137237,1.5637228057645807,1,0.42173371084238775,0.001,0.7519938945770264,1.0
294,1,294,-1,-1,0.3614827279990891,-1.1570973300249565,1,0.42173371084238775,0.001,0.5819960832595825,0.0
295,1,295,1,1,0.6500357663249638,1.5609244695256916,1,0.42173371084238775,0.001,0.37999865412712097,0.0
296,1,296,-1,1,-0.1199197218262964,-1.0964157804808354,1,0.42173371084238775,0.001,0.8989920020103455,0.0
297,1,297,1,-1,0.114727057032179,1.62840098938165,1,0.42173371084238775,0.001,1.7110239267349243,1.0
298,1,298,-1,1,0.22831286739362805,-1.1403110558856264,1,0.42173371084238775,0.001,0.23900030553340912,0.0
299,1,299,-1,1,-0.3387430446198899,-1.0688327502982407,1,0.42173371084238775,0.001,0.3979984223842621,0.0
300,1,300,1,1,-0.35969201451870203,1.6882022729136157,1,0.42173371084238775,0.001,1.015991449356079,1.0
301,1,301,-1,1,1.7237051290563694,-1.3288076446481,1,0.42173371084238775,0.001,0.6229955554008484,0.0
302,1,302,-1,1,-0.15685611434561286,-1.0917598890672062,1,0.42173371084238775,0.001,0.2380003035068512,0.0
303,1,303,-1,-1,-0.7785087782751542,-1.0133995754893295,1,0.42173371084238775,0.001,0.6909946799278259,0.0
304,1,304,1,-1,0.5436542174485577,1.5743340340824683,1,0.42173371084238775,0.001,0.616995632648468,1.0
305,1,305,-1,1,-0.9706638162840235,-0.9891781253007874,1,0.42173371084238775,0.001,2.14902663230896,0.0
306,1,306,1,1,1.5316057106046397,1.449801166622229,1,0.42173371084238775,0.001,1.25600266456604,1.0
307,1,307,1,1,-0.9779073690977487,1.7661293081445997,1,0.42173371084238775,0.001,0.7109944224357605,1.0
308,1,308,-1,1,-0.30197373451545295,-1.0734675807059688,1,0.42173371084238775,0.001,0.8579925298690796,0.0
309,1,309,1,-1,0.35077399509664775,1.5986468949184984,1,0.42173371084238775,0.001,0.34099915623664856,1.0
310,1,310,-1,1,0.16135940689207368,-1.1318714649943689,1,0.42173371084238775,0.001,0.34399911761283875,0.0
311,1,311,-1,1,1.257189098100203,-1.2700025520361669,1,0.42173371084238775,0.001,1.3440067768096924,0.0
312,1,312,-1,1,-1.7287578079911827,-0.8936191639087868,1,0.42173371084238775,0.001,1.4770129919052124,0.0
313,1,313,1,1,-1.334580031274752,1.8110884682585084,1,0.42173371084238775,0.001,0.6009958386421204,1.0
314,1,314,-1,-1,-1.6558933324760532,-0.9028038477062654,1,0.42173371084238775,0.001,0.5259968042373657,0.0
315,1,315,-1,1,0.4370418105805251,-1.1666216733573114,1,0.42173371084238775,0.001,0.2899998128414154,0.0
316,1,316,-1,1,-0.28083704251271047,-1.0761318945735623,1,0.42173371084238775,0.001,1.0129913091659546,0.0
317,1,317,-1,1,0.5348526157895499,-1.1789508819527281,1,0.42173371084238775,0.001,1.0349923372268677,0.0
318,1,318,1,-1,0.06756941304750874,1.6343452859070993,1,0.42173371084238775,0.001,0.9139918088912964,1.0
319,1,319,-1,1,-0.0092942307284265,-1.1103603007493406,1,0.42173371084238775,0.001,0.26400014758110046,0.0
320,1,320,-1,1,1.5485452014057124,-1.3067284553300287,1,0.42173371084238775,0.001,1.14299738407135,0.0
321,1,321,1,1,0.6998690888314258,1.5546428994387076,1,0.42173371084238775,0.001,0.38999852538108826,1.0
322,1,322,-1,1,0.9920825012610381,-1.2365854410588457,1,0.42173371084238775,0.001,0.33399924635887146,0.0
323,1,323,1,1,0.04308191378408999,1.637431974394671,1,0.42173371084238775,0.001,0.7539938688278198,1.0
324,1,324,1,1,-0.4252632167833508,1.6964676279410633,1,0.42173371084238775,0.001,1.3920090198516846,1.0
325,1,325,1,-1,-0.0779391821751505,1.6526868772997105,1,0.42173371084238775,0.001,0.5059970617294312,1.0
326,1,326,-1,1,-0.4884823070965161,-1.0499578765248077,1,0.42173371084238775,0.001,0.14600011706352234,0.0
327,1,327,-1,-1,-0.982006814081828,-0.9877483222678033,1,0.42173371084238775,0.001,0.7069944739341736,0.0
328,1,328,-1,1,-0.8990078164557969,-0.9982104788031164,1,0.42173371084238775,0.001,0.08699999749660492,0.0
329,1,329,-1,1,0.16113364897951366,-1.1318430078480437,1,0.42173371084238775,0.001,0.45299771428108215,0.0
330,1,330,-1,-1,-1.300102081334667,-0.947651904547962,1,0.42173371084238775,0.001,0.1750001758337021,0.0
331,1,331,-1,-1,-0.9252293722452005,-0.994905209714154,1,0.42173371084238775,0.001,0.33299925923347473,0.0
332,1,332,-1,-1,0.476152267801377,-1.1715516091073293,1,0.42173371084238775,0.001,0.6249955296516418,1.0
333,1,333,1,-1,-0.27896868643007616,1.678026968166926,1,0.42173371084238775,0.001,0.8059931993484497,1.0
334,1,334,1,1,0.9734600409326593,1.5201563218968273,1,0.42173371084238775,0.001,0.23200029134750366,1.0
335,1,335,1,1,1.350553111718102,1.472623136583974,1,0.42173371084238775,0.001,0.37999865412712097,1.0
336,1,336,1,-1,-1.0069933224842444,1.7697956391366851,1,0.42173371084238775,0.001,0.3069995939731598,1.0
337,1,337,-1,-1,-1.3992044626448403,-0.935159890717133,1,0.42173371084238775,0.001,1.0879948139190674,0.0
338,1,338,-1,-1,0.609022713001601,-1.1883001414554537,1,0.42173371084238775,0.001,0.75699383020401,0.0
339,1,339,1,1,1.937182210164693,1.3986775995092833,1,0.42173371084238775,0.001,0.31899943947792053,1.0
340,1,340,-1,1,0.8529126574510479,-1.2190428594303835,1,0.42173371084238775,0.001,0.14300011098384857,0.0
341,1,341,1,1,-0.47347441634317344,1.7025447268335432,1,0.42173371084238775,0.001,0.3739987313747406,1.0
342,1,342,-1,1,0.6484140187578052,-1.193265478613002,1,0.42173371084238775,0.001,0.34699907898902893,0.0
343,1,343,-1,-1,-0.5615734205938625,-1.0407446246468146,1,0.42173371084238775,0.001,0.6619950532913208,0.0
344,1,344,1,1,1.472174571051612,1.457292556914403,1,0.42173371084238775,0.001,0.6159956455230713,1.0
345,1,345,-1,1,0.5559335532181329,-1.1816081678669836,1,0.42173371084238775,0.001,0.4929971992969513,0.0
346,1,346,-1,1,1.1399131987867712,-1.2552197371645335,1,0.42173371084238775,0.001,0.49199721217155457,0.0
347,1,347,-1,-1,-1.5127950055282882,-0.9208416209238951,1,0.42173371084238775,0.001,0.37199875712394714,1.0
348,1,348,1,1,1.1346054341084186,1.4998436870871195,1,0.42173371084238775,0.001,0.262000173330307,1.0
349,1,349,1,-1,0.168290511331724,1.621649230210065,1,0.42173371084238775,0.001,0.5479965209960938,1.0
350,1,350,1,-1,-0.2941276161802383,1.6799377755319571,1,0.42173371084238775,0.001,0.8419927358627319,1.0
351,1,351,1,-1,-1.6409173056018544,1.8497027721450667,1,0.42173371084238775,0.001,1.617019534111023,1.0
352,1,352,-1,-1,-0.2794831356913838,-1.076302556696047,1,0.42173371084238775,0.001,0.2750000059604645,0.0
353,1,353,1,1,1.517018265605096,1.451639937419476,1,0.42173371084238775,0.001,0.7539938688278198,1.0
354,1,354,-1,-1,-2.0690068857468384,-0.8507302229059723,1,0.42173371084238775,0.001,5.629774570465088,0.0
355,1,355,1,1,0.2877110996180301,1.6065960738596723,1,0.42173371084238775,0.001,0.41399821639060974,1.0
356,1,356,-1,-1,0.07982868819853428,-1.1215943873692669,1,0.42173371084238775,0.001,0.6039958000183105,0.0
357,1,357,1,1,2.0999130510773085,1.3781651164739828,1,0.42173371084238775,0.001,2.1810243129730225,1.0
358,1,358,1,1,0.9627419177493379,1.5215073584842078,1,0.42173371084238775,0.001,0.7409940361976624,1.0
359,1,359,-1,1,0.01859890475997228,-1.113876275135624,1,0.42173371084238775,0.001,0.20400023460388184,0.0
360,1,360,-1,-1,-1.381520813216519,-0.9373889430397682,1,0.42173371084238775,0.001,0.1220000684261322,0.0
361,1,361,-1,-1,-0.4281573380529928,-1.0575619354553136,1,0.42173371084238775,0.001,0.7099944353103638,0.0
362,1,362,1,1,1.3989452009387233,1.4665232362601393,1,0.42173371084238775,0.001,1.9970372915267944,1.0
363,1,363,1,1,1.7890049099093315,1.417355585443965,1,0.42173371084238775,0.001,0.3449991047382355,1.0
364,1,364,1,1,1.6355337861765786,1.4367008663035845,1,0.42173371084238775,0.001,0.2290002852678299,1.0
365,1,365,-1,-1,-1.0265576088165038,-0.9821326232639807,1,0.42173371084238775,0.001,0.5049970746040344,0.0
366,1,366,-1,1,-0.1800139900550657,-1.08884080175739,1,0.42173371084238775,0.001,1.4320108890533447,0.0
367,1,367,-1,1,1.1858512796320073,-1.2610103058036901,1,0.42173371084238775,0.001,0.09300000965595245,0.0
368,1,368,-1,1,1.847678290707798,-1.3444346601600095,1,0.42173371084238775,0.001,0.3839986026287079,0.0
369,1,369,1,1,1.521929875457365,1.4510208211339233,1,0.42173371084238775,0.001,0.8099931478500366,1.0
370,1,370,-1,1,0.778371379955622,-1.2096468120586648,1,0.42173371084238775,0.001,0.2829999029636383,0.0
371,1,371,1,1,0.5926997252381079,1.5681517693018723,1,0.42173371084238775,0.001,0.6839947700500488,1.0
372,1,372,1,1,0.3630649557439029,1.5970975996506165,1,0.42173371084238775,0.001,0.18300019204616547,1.0
373,1,373,-1,1,-1.203641916488162,-0.9598108627632566,1,0.42173371084238775,0.001,0.6619950532913208,0.0
374,1,374,1,1,1.812236533439927,1.4144272021032205,1,0.42173371084238775,0.001,0.5069970488548279,1.0
375,1,375,1,1,0.5868446211092211,1.5688898145515628,1,0.42173371084238775,0.001,0.8609924912452698,1.0
376,1,376,-1,1,-1.2527429867618156,-0.9536215942425815,1,0.42173371084238775,0.001,0.23000028729438782,0.0
377,1,377,-1,1,1.9798005437656054,-1.3610888816906983,1,0.42173371084238775,0.001,0.6819947957992554,0.0
378,1,378,1,1,-1.1291062552186693,1.785188169815309,1,0.42173371084238775,0.001,0.6699949502944946,1.0
379,1,379,-1,1,1.397603245419803,-1.2877019801141925,1,0.42173371084238775,0.001,0.31599947810173035,0.0
380,1,380,-1,-1,-0.36480965650311675,-1.065547012136723,1,0.42173371084238775,0.001,0.6929946541786194,0.0
381,1,381,-1,1,1.5844919384772242,-1.311259599089986,1,0.42173371084238775,0.001,0.8119931221008301,0.0
382,1,382,1,1,1.3270500000085361,1.4755857414443405,1,0.42173371084238775,0.001,0.38999852538108826,1.0
383,1,383,1,1,-0.4977677760305066,1.7056069437167243,1,0.42173371084238775,0.001,0.36799880862236023,1.0
384,1,384,-1,1,0.28601934499460613,-1.147585049777495,1,0.42173371084238775,0.001,0.5429965853691101,0.0
385,1,385,1,1,0.40492783880809063,1.5918207162163076,1,0.42173371084238775,0.001,2.237020254135132,1.0
386,1,386,-1,-1,-0.602302299861898,-1.035610684206594,1,0.42173371084238775,0.001,0.2250002771615982,0.0
387,1,387,-1,-1,-0.22071903482867145,-1.0837098656933521,1,0.42173371084238775,0.001,1.7710267305374146,1.0
388,1,388,-1,1,1.1635852255846117,-1.2582036340422165,1,0.42173371084238775,0.001,0.23100028932094574,0.0
389,1,389,-1,-1,-0.6308988163597744,-1.0320060475179262,1,0.42173371084238775,0.001,0.3459990918636322,0.0
390,1,390,1,-1,1.8064559708067711,1.4151558512780305,1,0.42173371084238775,0.001,0.7719936370849609,1.0
391,1,391,1,1,-0.3466893807083853,1.686563270104114,1,0.42173371084238775,0.001,0.31899943947792053,1.0
392,1,392,1,-1,-2.278283141331382,1.9300437561857176,1,0.42173371084238775,0.001,0.320999413728714,1.0
393,1,393,-1,1,0.15714264705622794,-1.1313399356658675,1,0.42173371084238775,0.001,0.25300028920173645,0.0
394,1,394,-1,-1,-2.290753396212202,-0.8227787202372163,1,0.42173371084238775,0.001,0.6549951434135437,0.0
395,1,395,1,1,0.4964770124422454,1.5802807963060135,1,0.42173371084238775,0.001,0.5779961347579956,1.0
396,1,396,-1,-1,-0.07888372431768176,-1.101588433666989,1,0.42173371084238775,0.001,1.1799991130828857,0.0
397,1,397,1,-1,-1.1112442722960807,1.7829366382702028,1,0.42173371084238775,0.001,1.4200103282928467,1.0
398,1,398,1,1,0.5484581513345189,1.573728490524862,1,0.42173371084238775,0.001,0.7599937915802002,1.0
399,1,399,-1,1,1.215260012263343,-1.2647173236363694,1,0.42173371084238775,0.001,0.5079970359802246,0.0
400,1,400,-1,1,0.4829475056503348,-1.1724081597176248,1,0.42173371084238775,0.001,0.4369979202747345,0.0
401,1,401,-1,1,-0.5721676693049036,-1.0394092026349928,1,0.42173371084238775,0.001,0.5759961605072021,0.0
402,1,402,1,1,-0.28887216065118304,1.6792753169483354,1,0.42173371084238775,0.001,0.8259929418563843,1.0
403,1,403,-1,-1,0.44763046827425956,-1.1679563906124504,1,0.42173371084238775,0.001,0.5779961347579956,0.0
404,1,404,-1,1,2.0419581521850407,-1.3689239477486632,1,0.42173371084238775,0.001,0.29799970984458923,0.0
405,1,405,-1,-1,-0.23895248563075788,-1.081411510027301,1,0.42173371084238775,0.001,1.740025281906128,0.0
406,1,406,-1,1,1.2361505784478677,-1.2673506129505197,1,0.42173371084238775,0.001,0.4269980490207672,0.0
407,1,407,1,1,0.08942165221885223,1.6315907761732855,1,0.42173371084238775,0.001,0.9199917316436768,1.0
408,1,408,-1,1,0.03162372800396407,-1.1155180749587665,1,0.42173371084238775,0.001,0.41499820351600647,0.0
409,1,409,-1,-1,0.1895101262239941,-1.1354199082365297,1,0.42173371084238775,0.001,0.5079970359802246,0.0
410,1,410,-1,-1,-2.1724186480190095,-0.8376950047054006,1,0.42173371084238775,0.001,0.2869998514652252,0.0
411,1,411,1,1,0.9242693974200715,1.52635688126768,1,0.42173371084238775,0.001,0.40099838376045227,0.0
412,1,412,1,-1,0.3238403256944876,1.6020419270684698,1,0.42173371084238775,0.001,0.3919984996318817,1.0
413,1,413,1,1,0.476463139620554,1.5828035770181594,1,0.42173371084238775,0.001,0.3599989116191864,1.0
414,1,414,-1,-1,-1.0763744404127102,-0.9758531318826368,1,0.42173371084238775,0.001,0.4969971477985382,0.0
415,1,415,1,-1,0.6166103292545315,1.5651377993838156,1,0.42173371084238775,0.001,0.1710001677274704,1.0
416,1,416,-1,-1,-0.5627420419457327,-1.0405973180544041,1,0.42173371084238775,0.001,0.5269967913627625,1.0
417,1,417,1,1,-0.8770912691144794,1.7534212773312983,1,0.42173371084238775,0.001,0.4759974181652069,1.0
418,1,418,-1,1,-0.08599457559496881,-1.1006920994787437,1,0.42173371084238775,0.001,0.2680000960826874,0.0
419,1,419,1,-1,0.20639737576390782,1.6168457989378489,1,0.42173371084238775,0.001,1.0569933652877808,1.0
420,1,420,1,1,-0.4149164113784056,1.695163396554141,1,0.42173371084238775,0.001,0.5429965853691101,1.0
421,1,421,1,1,-0.2109933458339993,1.669458567653685,1,0.42173371084238775,0.001,0.6519951820373535,1.0
422,1,422,1,-1,0.38986119083794035,1.5937198913152215,1,0.42173371084238775,0.001,1.3500070571899414,1.0
423,1,423,1,1,0.6304941715578342,1.5633877188329248,1,0.42173371084238775,0.001,0.19500021636486053,1.0
424,1,424,-1,1,0.49902560121233785,-1.1744348294048577,1,0.42173371084238775,0.001,1.48201322555542,0.0
425,1,425,1,1,0.7539014464973209,1.5478320342470617,1,0.42173371084238775,0.001,0.9379914999008179,1.0
426,1,426,-1,-1,0.07401212599550921,-1.120861200391038,1,0.42173371084238775,0.001,0.38599857687950134,0.0
427,1,427,1,1,1.9074538033766903,1.402424912781221,1,0.42173371084238775,0.001,0.6119956970214844,1.0
428,1,428,-1,1,0.4883453470744881,-1.1730885662712887,1,0.42173371084238775,0.001,0.1350000947713852,0.0
429,1,429,1,1,-0.5344595337800324,1.7102319985259518,1,0.42173371084238775,0.001,0.2889998257160187,1.0
430,1,430,1,-1,-0.7162864743340999,1.7331515754946392,1,0.42173371084238775,0.001,0.6959946155548096,0.0
431,1,431,1,-1,-1.5184604679758387,1.834266891704253,1,0.42173371084238775,0.001,1.0249918699264526,1.0
432,1,432,1,-1,-0.4672621539189987,1.7017616612089075,1,0.42173371084238775,0.001,0.4479977786540985,0.0
433,1,433,-1,1,-1.3864999655547918,-0.9367613129157166,1,0.42173371084238775,0.001,0.09600001573562622,0.0
434,1,434,-1,-1,0.12653183523303946,-1.1274813938264807,1,0.42173371084238775,0.001,1.8840320110321045,0.0
435,1,435,-1,1,-0.2859572825571757,-1.0754864801182584,1,0.42173371084238775,0.001,1.0619935989379883,0.0
436,1,436,-1,1,0.8252161620417852,-1.2155516718409034,1,0.42173371084238775,0.001,0.7629937529563904,0.0
437,1,437,1,-1,1.4779196971349187,1.4565683745734368,1,0.42173371084238775,0.001,0.5149969458580017,1.0
438,1,438,1,-1,0.22440910912457235,1.614575391110267,1,0.42173371084238775,0.001,1.530015468597412,1.0
439,1,439,-1,1,0.13932546174504218,-1.1290940509314014,1,0.42173371084238775,0.001,0.8239929676055908,0.0
440,1,440,-1,1,0.5211048325716422,-1.177217951867387,1,0.42173371084238775,0.001,0.49499717354774475,0.0
441,1,441,1,-1,-2.7689387254116933,1.991891678117292,1,0.42173371084238775,0.001,0.3489990532398224,1.0
442,1,442,-1,1,0.40850661084064704,-1.1630247657441597,1,0.42173371084238775,0.001,0.1580001413822174,0.0
443,1,443,-1,-1,-2.2388700711389373,-0.829318696429878,1,0.42173371084238775,0.001,0.7689936757087708,0.0
444,1,444,1,1,2.467241031473799,1.331862836438938,1,0.42173371084238775,0.001,0.42099812626838684,1.0
445,1,445,-1,1,0.7049583045840906,-1.2003929763709573,1,0.42173371084238775,0.001,0.5559964179992676,0.0
446,1,446,1,-1,0.005252657745971501,1.6422004126843535,1,0.42173371084238775,0.001,0.5009971261024475,1.0
447,1,447,1,-1,0.3679436301280423,1.5964826349335524,1,0.42173371084238775,0.001,0.42799803614616394,1.0
448,1,448,1,-1,-2.700702419073838,1.9832903824544836,1,0.42173371084238775,0.001,1.3720080852508545,1.0
449,1,449,1,-1,-1.3081146882412753,1.8077524693971179,1,0.42173371084238775,0.001,0.5099970102310181,1.0
450,1,450,-1,1,0.2803862495697379,-1.1468749890803904,1,0.42173371084238775,0.001,1.0609935522079468,0.0
451,1,451,1,-1,-1.4546829230535827,1.8262276300565277,1,0.42173371084238775,0.001,0.3559989631175995,1.0
452,1,452,-1,1,0.818526591003285,-1.2147084407012427,1,0.42173371084238775,0.001,0.4259980618953705,0.0
453,1,453,-1,1,1.5299526582618868,-1.3043848354993808,1,0.42173371084238775,0.001,0.9789909720420837,0.0
454,1,454,-1,-1,-0.972594906609858,-0.988934708273467,1,0.42173371084238775,0.001,0.6999945640563965,0.0
455,1,455,-1,1,0.9005586242585628,-1.2250487098294758,1,0.42173371084238775,0.001,1.5290154218673706,0.0
456,1,456,1,1,0.4511374932481926,1.5859959152907186,1,0.42173371084238775,0.001,0.18300019204616547,1.0
457,1,457,-1,-1,-0.0921210437248774,-1.09991984836226,1,0.42173371084238775,0.001,0.9199917316436768,0.0
458,1,458,1,-1,0.4615535233797483,1.5846829580161756,1,0.42173371084238775,0.001,0.5779961347579956,1.0
459,1,459,-1,-1,-0.3915006525171031,-1.0621825693558602,1,0.42173371084238775,0.001,1.784027338027954,0.0
460,1,460,1,1,1.212786429637237,1.4899888474299647,1,0.42173371084238775,0.001,0.10200002789497375,1.0
461,1,461,1,-1,-2.1295930459298757,1.91130113160186,1,0.42173371084238775,0.001,0.5419965982437134,1.0
462,1,462,-1,-1,-1.1559691884816545,-0.9658200864543275,1,0.42173371084238775,0.001,0.2660001218318939,0.0
463,1,463,1,-1,0.5860371002946063,1.5689916038431166,1,0.42173371084238775,0.001,1.3490070104599,1.0
464,1,464,-1,1,1.016375245438865,-1.2396475803560683,1,0.42173371084238775,0.001,1.9220337867736816,0.0
465,1,465,1,1,-0.73423569056534,1.7354141029379648,1,0.42173371084238775,0.001,1.3660078048706055,1.0
466,1,466,1,1,-0.007841786354393698,1.6438509883279075,1,0.42173371084238775,0.001,0.59499591588974,1.0
467,1,467,-1,1,0.1731238109219047,-1.1333543869575873,1,0.42173371084238775,0.001,0.42499807476997375,0.0
468,1,468,1,-1,-2.3410546187496566,1.9379562014138139,1,0.42173371084238775,0.001,0.557996392250061,1.0
469,1,469,-1,1,-0.2656255556328694,-1.0780493268489353,1,0.42173371084238775,0.001,1.2590028047561646,1.0
470,1,470,1,-1,-2.3359518015404244,1.9373129831347857,1,0.42173371084238775,0.001,0.30599960684776306,1.0
471,1,471,-1,-1,-0.08415749478862566,-1.1009236664556195,1,0.42173371084238775,0.001,0.46999749541282654,0.0
472,1,472,1,-1,-1.7759519996673354,1.8667241115277016,1,0.42173371084238775,0.001,0.5749961733818054,1.0
473,1,473,1,1,-0.3228740845439382,1.6835613138933905,1,0.42173371084238775,0.001,0.6379953622817993,1.0
474,1,474,1,-1,-1.1121393240284951,1.7830494609740855,1,0.42173371084238775,0.001,0.3669988214969635,1.0
475,1,475,1,-1,-0.6327927567347555,1.7226270587146244,1,0.42173371084238775,0.001,0.9479913711547852,1.0
476,1,476,-1,-1,-0.9237001677230522,-0.9950979683924853,1,0.42173371084238775,0.001,0.21400025486946106,0.0
477,1,477,-1,1,0.4838164480223417,-1.1725176912948259,1,0.42173371084238775,0.001,0.27400001883506775,0.0
478,1,478,-1,1,0.8728319865118138,-1.2215537227500963,1,0.42173371084238775,0.001,0.6299954652786255,0.0
479,1,479,1,1,1.142613591662979,1.4988342460060022,1,0.42173371084238775,0.001,0.37999865412712097,1.0
480,1,480,-1,1,0.3106698515989439,-1.1506922856013706,1,0.42173371084238775,0.001,0.7429940104484558,0.0
481,1,481,1,-1,-1.7847004723436066,1.867826870515183,1,0.42173371084238775,0.001,0.3879985511302948,1.0
482,1,482,1,-1,-1.9784726021969037,1.8922521577197409,1,0.42173371084238775,0.001,0.561996340751648,1.0
483,1,483,1,-1,-2.149788551299129,1.9138468073874264,1,0.42173371084238775,0.001,0.38299861550331116,1.0
484,1,484,-1,1,0.2614548245690906,-1.1444886526491276,1,0.42173371084238775,0.001,0.21800026297569275,0.0
485,1,485,-1,-1,0.22148214290807655,-1.139450032127973,1,0.42173371084238775,0.001,0.18300019204616547,0.0
486,1,486,-1,-1,0.5395460518223729,-1.1795424970790351,1,0.42173371084238775,0.001,1.0589934587478638,0.0
487,1,487,1,1,-0.5604853793950448,1.7135125980340926,1,0.42173371084238775,0.001,0.6989945769309998,1.0
488,1,488,-1,-1,0.988212775162453,-1.2360976558885404,1,0.42173371084238775,0.001,0.24400031566619873,0.0
489,1,489,-1,1,1.9316666269000706,-1.355021524405566,1,0.42173371084238775,0.001,1.2000000476837158,0.0
490,1,490,-1,1,1.7205060296819463,-1.3284043930500742,1,0.42173371084238775,0.001,0.2789999544620514,0.0
491,1,491,-1,-1,-0.08993420146343356,-1.1001955033305328,1,0.42173371084238775,0.001,1.6480209827423096,0.0
492,1,492,1,1,0.04721204299120896,1.6369113649956197,1,0.42173371084238775,0.001,1.2910043001174927,1.0
493,1,493,1,1,1.4184023663831247,1.4640706294042105,1,0.42173371084238775,0.001,0.23200029134750366,1.0
494,1,494,-1,-1,0.3789640076384764,-1.159300873311695,1,0.42173371084238775,0.001,0.8409927487373352,0.0
495,1,495,-1,-1,-3.2334266283694526,-0.7039532500680976,1,0.42173371084238775,0.001,0.7009945511817932,0.0
496,1,496,-1,-1,-1.1548032270651774,-0.9659670577576229,1,0.42173371084238775,0.001,0.6359953880310059,0.0
497,1,497,-1,-1,-0.927697105842699,-0.994594147943254,1,0.42173371084238775,0.001,0.19900022447109222,0.0
498,1,498,1,-1,-1.2052511501520633,1.794786355732536,1,0.42173371084238775,0.001,0.19600021839141846,1.0
499,1,499,1,1,3.3767645605819023,1.2172159394130997,1,0.42173371084238775,0.001,0.8359928131103516,1.0
500,1,500,1,1,1.1026474086401568,1.5038720473634082,1,0.42173371084238775,0.001,0.6919946670532227,1.0
501,1,501,1,1,1.1019926569925709,1.5039545798568685,1,0.42173371084238775,0.001,0.25000032782554626,0.0
502,1,502,1,1,0.425024369269029,1.5892875163763969,1,0.42173371084238775,0.001,0.390998512506485,1.0
503,1,503,1,-1,1.4363635520750817,1.461806593191198,1,0.42173371084238775,0.001,1.7010234594345093,1.0
504,1,504,1,-1,-1.6091396910513862,1.8456971529538109,1,0.42173371084238775,0.001,0.482997328042984,1.0
505,1,505,1,-1,0.6059868742663057,1.566476902893637,1,0.42173371084238775,0.001,0.21200025081634521,1.0
506,1,506,-1,1,0.1425693730151691,-1.1295029511406263,1,0.42173371084238775,0.001,0.9399914741516113,0.0
507,1,507,-1,-1,-0.29455810213829253,-1.0744023330398194,1,0.42173371084238775,0.001,0.513996958732605,0.0
508,1,508,1,-1,-0.6951407731847458,1.7304861260096913,1,0.42173371084238775,0.001,0.5079970359802246,1.0
509,1,509,-1,1,0.7014024371060157,-1.199944753582267,1,0.42173371084238775,0.001,0.4819973409175873,0.0
510,1,510,-1,-1,0.18361623985389597,-1.1346769744232426,1,0.42173371084238775,0.001,0.2580002248287201,0.0
511,1,511,-1,-1,-1.1635734395552266,-0.9648615584318085,1,0.42173371084238775,0.001,0.9849908947944641,1.0
512,1,512,-1,1,-1.0355847582124311,-0.9809947366298145,1,0.42173371084238775,0.001,0.8389927744865417,0.0
513,1,513,1,-1,1.6773759305252853,1.4314265970175655,1,0.42173371084238775,0.001,0.5909959673881531,0.0
514,1,514,-1,1,0.5658798730017315,-1.1828619174001425,1,0.42173371084238775,0.001,0.6329954266548157,0.0
515,1,515,-1,-1,0.9641859435483331,-1.2330690352957094,1,0.42173371084238775,0.001,0.23100028932094574,0.0
516,1,516,1,-1,-0.8575661660509765,1.7509601068297111,1,0.42173371084238775,0.001,0.7179943323135376,1.0
517,1,517,-1,1,0.8375913923341997,-1.2171115894324767,1,0.42173371084238775,0.001,0.14200010895729065,0.0
518,1,518,-1,-1,2.264809095512332,-1.3970146659479041,1,0.42173371084238775,0.001,0.6259955167770386,0.0
519,1,519,1,1,1.0658945686723562,1.5085048016840439,1,0.42173371084238775,0.001,0.6609950661659241,1.0
520,1,520,-1,1,-0.035738229551356526,-1.1070269923598623,1,0.42173371084238775,0.001,0.16500015556812286,0.0
521,1,521,-1,1,0.15206422268869646,-1.1306997921435897,1,0.42173371084238775,0.001,0.9129918217658997,0.0
522,1,522,-1,-1,0.3191961817100968,-1.1517670431628602,1,0.42173371084238775,0.001,0.39699843525886536,0.0
523,1,523,-1,-1,-0.9049152376742962,-0.9974658389005185,1,0.42173371084238775,0.001,0.7019945383071899,0.0
524,1,524,-1,1,0.9388772524004289,-1.229878834256339,1,0.42173371084238775,0.001,0.21800026297569275,0.0
525,1,525,1,1,0.4409714973939377,1.5872773553442934,1,0.42173371084238775,0.001,0.583996057510376,1.0
526,1,526,-1,-1,0.6919970558620405,-1.198759190218091,1,0.42173371084238775,0.001,0.6009958386421204,0.0
527,1,527,1,-1,-0.7320907603412333,1.7351437310491011,1,0.42173371084238775,0.001,1.520015001296997,1.0
528,1,528,1,-1,-2.5766601951704486,1.9676546615351433,1,0.42173371084238775,0.001,0.36199888586997986,1.0
529,1,529,-1,1,-0.6392492656287347,-1.0309534600181869,1,0.42173371084238775,0.001,1.4830132722854614,0.0
530,1,530,-1,-1,-0.7063271096319883,-1.0224981903873973,1,0.42173371084238775,0.001,0.2759999930858612,0.0
531,1,531,1,1,0.14329393259443313,1.6248000889803738,1,0.42173371084238775,0.001,0.28799983859062195,1.0
532,1,532,1,-1,-0.4765316398974955,1.7029300947572965,1,0.42173371084238775,0.001,1.1239964962005615,1.0
533,1,533,-1,1,0.43075668686198765,-1.1658294234498676,1,0.42173371084238775,0.001,1.108995795249939,0.0
534,1,534,-1,1,-0.046836069352339305,-1.1056280918848849,1,0.42173371084238775,0.001,0.22400027513504028,0.0
535,1,535,1,1,-0.0061910491126453415,1.643642910255692,1,0.42173371084238775,0.001,0.6749948859214783,1.0
536,1,536,1,1,1.2445051538426966,1.4859906514609826,1,0.42173371084238775,0.001,0.5099970102310181,1.0
537,1,537,-1,1,0.9385813987306961,-1.229841541427596,1,0.42173371084238775,0.001,0.16300015151500702,0.0
538,1,538,-1,-1,-1.0815043669331548,-0.9752064964315272,1,0.42173371084238775,0.001,0.7069944739341736,0.0
539,1,539,1,-1,-1.9601960474160292,1.8899483687281522,1,0.42173371084238775,0.001,0.2789999544620514,1.0
540,1,540,1,1,-1.2305514446351162,1.7979754983588587,1,0.42173371084238775,0.001,0.5459965467453003,1.0
541,1,541,-1,1,0.3620935524359853,-1.1571743254231803,1,0.42173371084238775,0.001,0.546996533870697,0.0
542,1,542,-1,1,0.4715320467592272,-1.1709692228478168,1,0.42173371084238775,0.001,0.11800006031990051,0.0
543,1,543,-1,-1,-0.06010854353158368,-1.1039550752648553,1,0.42173371084238775,0.001,0.39299848675727844,0.0
544,1,544,-1,1,0.15419095611335298,-1.1309678702967487,1,0.42173371084238775,0.001,1.7570260763168335,0.0
545,1,545,1,1,0.8196664776404998,1.539542246779148,1,0.42173371084238775,0.001,0.8499926328659058,1.0
546,1,546,1,1,0.38472774378706137,1.5943669705348287,1,0.42173371084238775,0.001,0.15100012719631195,1.0
547,1,547,1,-1,-2.9194048951055085,2.010858179709258,1,0.42173371084238775,0.001,0.39699843525886536,1.0
548,1,548,1,-1,-0.8433608495566771,1.7491695039423527,1,0.42173371084238775,0.001,0.24100030958652496,1.0
549,1,549,-1,-1,-1.7421864751997662,-0.8919264589073379,1,0.42173371084238775,0.001,1.9250339269638062,0.0
550,1,550,-1,-1,-1.4522034803221655,-0.9284792796854632,1,0.42173371084238775,0.001,0.3499990403652191,0.0
551,1,551,-1,-1,-1.0809064701990985,-0.9752818622721104,1,0.42173371084238775,0.001,0.3659988343715668,0.0
552,1,552,1,-1,-0.4787720034392311,1.7032124961686397,1,0.42173371084238775,0.001,0.41799816489219666,1.0
553,1,553,1,1,0.010735121339110809,1.6415093393708056,1,0.42173371084238775,0.001,0.320999413728714,1.0
554,1,554,1,1,1.8660692177331868,1.4076415060598801,1,0.42173371084238775,0.001,0.21400025486946106,0.0
555,1,555,1,-1,-0.053753249335936615,1.6496382017427293,1,0.42173371084238775,0.001,1.4390112161636353,1.0
556,1,556,-1,-1,-0.0658683502270232,-1.1032290424092255,1,0.42173371084238775,0.001,1.1759989261627197,0.0
557,1,557,1,-1,0.1711514404383523,1.621288605515718,1,0.42173371084238775,0.001,0.8949920535087585,0.0
558,1,558,1,-1,-0.8307694467061238,1.7475823374537256,1,0.42173371084238775,0.001,0.6899946928024292,1.0
559,1,559,1,-1,-1.4076833471097765,1.8203032582607022,1,0.42173371084238775,0.001,0.20100022852420807,1.0
560,1,560,-1,1,-0.03471327299156113,-1.107156189775219,1,0.42173371084238775,0.001,0.4729974567890167,0.0
561,1,561,-1,1,2.43139991689651,-1.4180137057016209,1,0.42173371084238775,0.001,0.16100014746189117,0.0
562,1,562,1,1,-0.6926418391436338,1.7301711313729207,1,0.42173371084238775,0.001,0.3039996325969696,1.0
563,1,563,-1,-1,0.13209068312667072,-1.1281820955033999,1,0.42173371084238775,0.001,0.30599960684776306,0.0
564,1,564,1,1,0.3720073336011193,1.5959703986046272,1,0.42173371084238775,0.001,0.5509964823722839,1.0
565,1,565,1,-1,-1.8372582749168955,1.874451865676587,1,0.42173371084238775,0.001,1.1779990196228027,1.0
566,1,566,1,-1,-0.7973477043044488,1.7433694733145138,1,0.42173371084238775,0.001,1.3400065898895264,1.0
567,1,567,-1,1,0.543671416862438,-1.1800625059472016,1,0.42173371084238775,0.001,0.5399966239929199,0.0
568,1,568,-1,1,2.2296652905353316,-1.392584733063985,1,0.42173371084238775,0.001,0.5829960703849792,0.0
569,1,569,-1,1,-0.18169839792793685,-1.0886284794482135,1,0.42173371084238775,0.001,0.19000020623207092,0.0
570,1,570,1,-1,-0.9092353244169684,1.757473086966032,1,0.42173371084238775,0.001,0.6639950275421143,1.0
571,1,571,-1,1,0.27263741481544224,-1.1458982360534324,1,0.42173371084238775,0.001,0.37199875712394714,0.0
572,1,572,-1,-1,-1.4828646745517013,-0.9246143870630921,1,0.42173371084238775,0.001,1.120996356010437,0.0
573,1,573,1,-1,-1.9579401959632916,1.8896640150408306,1,0.42173371084238775,0.001,0.5299967527389526,1.0
574,1,574,1,1,0.5117053886746459,1.57836123510071,1,0.42173371084238775,0.001,1.514014720916748,1.0
575,1,575,-1,1,-0.04502231826421854,-1.105856718113427,1,0.42173371084238775,0.001,0.14200010895729065,0.0
576,1,576,-1,1,0.46533339168452276,-1.1701878724513677,1,0.42173371084238775,0.001,0.9249916672706604,0.0
577,1,577,-1,1,0.85909097749002,-1.2198216465630212,1,0.42173371084238775,0.001,0.20600023865699768,0.0
578,1,578,1,-1,0.7241244184691602,1.5515854763041659,1,0.42173371084238775,0.001,1.8720314502716064,1.0
579,1,579,1,-1,-0.9968157213383497,1.7685127362175186,1,0.42173371084238775,0.001,0.30199965834617615,1.0
580,1,580,-1,1,-0.5969998354618729,-1.0362790683336642,1,0.42173371084238775,0.001,0.5159969329833984,1.0
581,1,581,1,1,0.5097614522883385,1.5786062713945201,1,0.42173371084238775,0.001,1.0669938325881958,1.0
582,1,582,1,1,-0.43537953294471254,1.6977428057898099,1,0.42173371084238775,0.001,0.3699987828731537,1.0
583,1,583,1,-1,-1.5331205544824202,1.8361148190797638,1,0.42173371084238775,0.001,0.6559951305389404,1.0
584,1,584,-1,-1,-2.1795200431684227,-0.8367998624772134,1,0.42173371084238775,0.001,0.6579951047897339,0.0
585,1,585,1,-1,-1.1428984885833713,1.7869267029128197,1,0.42173371084238775,0.001,0.3779986798763275,1.0
586,1,586,-1,-1,-1.3296355340150325,-0.943929165553421,1,0.42173371084238775,0.001,1.401009440422058,0.0
587,1,587,1,1,0.8975803214656216,1.5297210820219642,1,0.42173371084238775,0.001,0.7849934697151184,1.0
588,1,588,-1,1,-1.9863466709902977,-0.8611496753181819,1,0.42173371084238775,0.001,0.3529990017414093,0.0
589,1,589,1,1,1.175375532359857,1.4947045509280479,1,0.42173371084238775,0.001,0.25600025057792664,1.0
590,1,590,-1,-1,-1.2877666989796932,-0.9492067992432227,1,0.42173371084238775,0.001,0.9389914870262146,0.0
591,1,591,1,1,0.7967488778430278,1.5424310469255682,1,0.42173371084238775,0.001,0.21900026500225067,1.0
592,1,592,-1,1,-1.038719931624439,-0.980599543001699,1,0.42173371084238775,0.001,0.8199930191040039,0.0
593,1,593,-1,-1,0.4178709432468939,-1.1642051548366195,1,0.42173371084238775,0.001,0.4189981520175934,0.0
594,1,594,-1,1,0.5634690486003948,-1.1825580291245326,1,0.42173371084238775,0.001,0.8829922080039978,0.0
595,1,595,-1,1,2.601221879438468,-1.4394200359714553,1,0.42173371084238775,0.001,0.9829909205436707,0.0
596,1,596,1,-1,-0.2136576163888257,1.6697944032227192,1,0.42173371084238775,0.001,0.5819960832595825,1.0
597,1,597,1,-1,-1.885204484273338,1.8804955621296713,1,0.42173371084238775,0.001,1.6600215435028076,1.0
598,1,598,1,1,0.49091040426024424,1.5809824761797062,1,0.42173371084238775,0.001,1.0129913091659546,1.0
599,1,599,1,1,-0.9367521226057947,1.760941623433174,1,0.42173371084238775,0.001,0.27699998021125793,1.0
600,1,600,1,1,1.4040942625661836,1.4658741887981543,1,0.42173371084238775,0.001,0.5129969716072083,1.0
601,1,601,1,1,2.55309022764642,1.321041407813551,1,0.42173371084238775,0.001,1.0599935054779053,1.0
602,1,602,1,-1,-1.4115882466995915,1.8207954771058912,1,0.42173371084238775,0.001,0.6269955039024353,1.0
603,1,603,-1,-1,-0.08479924555173901,-1.1008427727444616,1,0.42173371084238775,0.001,0.24100030958652496,0.0
604,1,604,1,1,-0.08760868303318337,1.6539057333641043,1,0.42173371084238775,0.001,0.32999929785728455,1.0
605,1,605,1,-1,-2.2470827912799907,1.9261109021087925,1,0.42173371084238775,0.001,0.6379953622817993,1.0
606,1,606,1,1,1.9710595572362275,1.3944073056719952,1,0.42173371084238775,0.001,0.6249955296516418,1.0
607,1,607,1,1,1.2477956486606194,1.4855758793209761,1,0.42173371084238775,0.001,0.6909946799278259,1.0
608,1,608,-1,-1,0.20872060606500076,-1.1378414199771976,1,0.42173371084238775,0.001,0.331999272108078,0.0
609,1,609,1,-1,-1.430722983195416,1.8232074412766308,1,0.42173371084238775,0.001,0.49899712204933167,1.0
610,1,610,-1,1,-0.2701491811064013,-1.0774791166155002,1,0.42173371084238775,0.001,0.5019971132278442,0.0
611,1,611,1,1,-0.5697111829678225,1.7146755253453037,1,0.42173371084238775,0.001,0.19200021028518677,1.0
612,1,612,-1,1,1.5818570051381482,-1.310927461523967,1,0.42173371084238775,0.001,0.3349992334842682,0.0
613,1,613,1,-1,-0.4790189223487527,1.7032436206925115,1,0.42173371084238775,0.001,0.22700028121471405,1.0
614,1,614,1,-1,-1.6029819293766858,1.8449209572359042,1,0.42173371084238775,0.001,0.4469977915287018,1.0
615,1,615,1,1,1.6121029612124067,1.4396543593039604,1,0.42173371084238775,0.001,0.6079957485198975,1.0
616,1,616,1,1,0.6194729531660156,1.5647769610566034,1,0.42173371084238775,0.001,0.535996675491333,1.0
617,1,617,-1,-1,-2.053501303839219,-0.852684726330454,1,0.42173371084238775,0.001,0.8949920535087585,0.0
618,1,618,1,-1,-0.5000563605820967,1.705895423463563,1,0.42173371084238775,0.001,1.0439927577972412,1.0
619,1,619,-1,-1,-0.2666476622372215,-1.077920488675025,1,0.42173371084238775,0.001,0.5099970102310181,1.0
620,1,620,1,1,0.8194562521907123,1.5395687460336727,1,0.42173371084238775,0.001,0.34699907898902893,1.0
621,1,621,1,-1,1.7879308289909694,1.4174909750633689,1,0.42173371084238775,0.001,0.22300027310848236,1.0
622,1,622,1,1,1.1106343163482637,1.5028652848594581,1,0.42173371084238775,0.001,0.6399953365325928,1.0
623,1,623,-1,-1,-1.549433439265567,-0.9162232876917852,1,0.42173371084238775,0.001,1.0469928979873657,0.0
624,1,624,-1,-1,-2.57288204767593,-0.7872159520215122,1,0.42173371084238775,0.001,1.375008225440979,1.0
625,1,625,-1,1,-1.4015043909806777,-0.934869981068128,1,0.42173371084238775,0.001,0.3519990146160126,0.0
626,1,626,1,1,0.42623894515959093,1.5891344171408093,1,0.42173371084238775,0.001,0.9259916543960571,1.0
627,1,627,1,-1,0.5121817406283462,1.5783011901742885,1,0.42173371084238775,0.001,0.49499717354774475,1.0
628,1,628,-1,1,0.4272377578560958,-1.165385856814736,1,0.42173371084238775,0.001,0.24900032579898834,0.0
629,1,629,-1,-1,-0.8798851210161945,-1.000620925179441,1,0.42173371084238775,0.001,0.6259955167770386,0.0
630,1,630,1,1,0.13218617011384115,1.6262002402250024,1,0.42173371084238775,0.001,0.3349992334842682,1.0
631,1,631,-1,-1,-0.13676471727110617,-1.0942924418355386,1,0.42173371084238775,0.001,0.9809909462928772,0.0
632,1,632,1,1,0.6375724404317267,1.562495491708793,1,0.42173371084238775,0.001,0.13400009274482727,1.0
633,1,633,-1,-1,0.36285409834087967,-1.1572701934521552,1,0.42173371084238775,0.001,0.22100026905536652,0.0
634,1,634,-1,-1,0.9520627874132079,-1.2315408920552429,1,0.42173371084238775,0.001,0.4159981906414032,1.0
635,1,635,-1,1,0.37216104473982964,-1.158443348946518,1,0.42173371084238775,0.001,0.5599963665008545,0.0
636,1,636,-1,1,0.9865277538918518,-1.2358852562595979,1,0.42173371084238775,0.001,0.14200010895729065,0.0
637,1,637,1,-1,-2.5900491831242984,1.9693423649030048,1,0.42173371084238775,0.001,0.19600021839141846,1.0
638,1,638,-1,-1,-0.25072928678591355,-1.0799270253865871,1,0.42173371084238775,0.001,1.0189915895462036,0.0
639,1,639,-1,1,1.215373316954571,-1.2647316058741038,1,0.42173371084238775,0.001,0.16400015354156494,0.0
640,1,640,1,-1,-0.465212326457107,1.7015032771754843,1,0.42173371084238775,0.001,0.14100010693073273,1.0
641,1,641,1,1,0.21572848119793953,1.6156695981584346,1,0.42173371084238775,0.001,0.3349992334842682,1.0
642,1,642,-1,-1,0.45981392621034,-1.1694921349914729,1,0.42173371084238775,0.001,0.46399757266044617,0.0
643,1,643,1,-1,-1.2385549115623558,1.798984348178892,1,0.42173371084238775,0.001,1.871031403541565,1.0
644,1,644,-1,-1,0.8200015210855756,-1.2148943579995346,1,0.42173371084238775,0.001,0.13600009679794312,0.0
645,1,645,-1,1,1.5722916902939679,-1.3097217382734252,1,0.42173371084238775,0.001,1.2370017766952515,0.0
646,1,646,-1,-1,-0.07893579759214886,-1.1015818697473712,1,0.42173371084238775,0.001,0.9679911136627197,0.0
647,1,647,1,-1,0.17528716512229003,1.6207672907978552,1,0.42173371084238775,0.001,0.48799726366996765,1.0
648,1,648,-1,-1,1.055462601744438,-1.2445746041987296,1,0.42173371084238775,0.001,0.23900030553340912,0.0
649,1,649,-1,-1,-0.528438674159051,-1.044921312484912,1,0.42173371084238775,0.001,0.47199746966362,0.0
650,1,650,-1,1,0.48013135449374744,-1.1720531793555717,1,0.42173371084238775,0.001,0.5339967012405396,0.0
651,1,651,-1,-1,-0.12246009404751812,-1.0960955624951179,1,0.42173371084238775,0.001,0.7659937143325806,0.0
652,1,652,-1,-1,-0.4153834217746607,-1.059172108053723,1,0.42173371084238775,0.001,0.39599844813346863,0.0
653,1,653,1,-1,-0.912634518898803,1.7579015608727069,1,0.42173371084238775,0.001,0.7429940104484558,1.0
654,1,654,1,-1,0.47231847572549235,1.5833260185378963,1,0.42173371084238775,0.001,0.45699766278266907,1.0
655,1,655,-1,-1,-0.7224031783201047,-1.0204717761908628,1,0.42173371084238775,0.001,0.36799880862236023,0.0
656,1,656,-1,1,0.1819837640578375,-1.1344711982354936,1,0.42173371084238775,0.001,0.12400007247924805,0.0
657,1,657,-1,-1,-2.879033273596898,-0.7486250998344177,1,0.42173371084238775,0.001,0.3179994523525238,0.0
658,1,658,-1,-1,-1.778416872035329,-0.8873595593799719,1,0.42173371084238775,0.001,1.6910229921340942,0.0
659,1,659,1,1,2.1672505330228438,1.3696771190648784,1,0.42173371084238775,0.001,0.9509913325309753,1.0
660,1,660,1,-1,0.42225112891826155,1.5896370877626742,1,0.42173371084238775,0.001,0.4089982807636261,0.0
661,1,661,-1,-1,-0.7657973799049616,-1.0150018676053245,1,0.42173371084238775,0.001,0.7069944739341736,0.0
662,1,662,-1,1,1.037207497367949,-1.2422735190649568,1,0.42173371084238775,0.001,0.3589989244937897,0.0
663,1,663,-1,1,0.5235068476967811,-1.1775207297196284,1,0.42173371084238775,0.001,0.2590002119541168,0.0
664,1,664,1,1,-0.09538236136716571,1.6548856179640574,1,0.42173371084238775,0.001,0.5759961605072021,1.0
665,1,665,-1,-1,-0.8986926212507846,-0.9982502096633477,1,0.42173371084238775,0.001,1.2920043468475342,0.0
666,1,666,1,1,1.0026126962973843,1.5164815830135936,1,0.42173371084238775,0.001,0.3239993751049042,1.0
667,1,667,1,1,0.3809392238253355,1.5948445195415688,1,0.42173371084238775,0.001,0.6839947700500488,1.0
668,1,668,-1,1,-0.4819011583995052,-1.0507874408547353,1,0.42173371084238775,0.001,0.3529990017414093,0.0
669,1,669,-1,-1,-2.031017742398953,-0.8555188152470365,1,0.42173371084238775,0.001,0.15700013935565948,0.0
670,1,670,-1,1,2.0350770443580206,-1.368056573090152,1,0.42173371084238775,0.001,0.4269980490207672,0.0
671,1,671,-1,1,0.3228804624054572,-1.1522314526431838,1,0.42173371084238775,0.001,0.4649975597858429,1.0
672,1,672,1,-1,0.9568428397244269,1.522250946713896,1,0.42173371084238775,0.001,0.5669962763786316,1.0
673,1,673,-1,1,1.0656715330149016,-1.2458614563302588,1,0.42173371084238775,0.001,1.1119959354400635,0.0
674,1,674,1,1,0.6436739841856444,1.561726382349808,1,0.42173371084238775,0.001,0.38199862837791443,1.0
675,1,675,1,-1,0.09935371824494599,1.630338823349081,1,0.42173371084238775,0.001,0.27400001883506775,1.0
676,1,676,1,-1,-0.28680824779400926,1.6790151574282857,1,0.42173371084238775,0.001,0.708994448184967,0.0
677,1,677,1,1,0.3000940640659257,1.605035181365418,1,0.42173371084238775,0.001,0.8429927229881287,1.0
678,1,678,1,1,0.9725160117171702,1.5202753182908664,1,0.42173371084238775,0.001,0.27699998021125793,1.0
679,1,679,-1,-1,-0.29334150094386524,-1.0745556875682016,1,0.42173371084238775,0.001,1.0389925241470337,0.0
680,1,680,-1,-1,-0.2784368402334592,-1.076434443913677,1,0.42173371084238775,0.001,1.6590214967727661,1.0
681,1,681,1,1,1.2601811471127706,1.4840146674114285,1,0.42173371084238775,0.001,0.2959997355937958,1.0
682,1,682,-1,1,2.0264463217490327,-1.366968656687174,1,0.42173371084238775,0.001,0.2969997227191925,0.0
683,1,683,-1,-1,-0.5114603003182809,-1.047061463690563,1,0.42173371084238775,0.001,1.784027338027954,1.0
684,1,684,1,-1,-0.07423389978407091,1.652219820522017,1,0.42173371084238775,0.001,0.24600031971931458,1.0
685,1,685,1,-1,2.2976533024117116,1.3532396412036183,1,0.42173371084238775,0.001,0.5849960446357727,1.0
686,1,686,-1,1,1.4441106262425452,-1.2935643099269847,1,0.42173371084238775,0.001,1.2710033655166626,0.0
687,1,687,1,-1,-1.1909748389832036,1.792986803852784,1,0.42173371084238775,0.001,1.4300107955932617,1.0
688,1,688,1,-1,-1.5371762434946366,1.836626045173066,1,0.42173371084238775,0.001,0.4509977400302887,1.0
689,1,689,-1,1,-0.34427356539780274,-1.0681356192996105,1,0.42173371084238775,0.001,0.7009945511817932,1.0
690,1,690,1,1,0.8877662510869382,1.5309581613058971,1,0.42173371084238775,0.001,0.2939997613430023,1.0
691,1,691,-1,1,2.175166932206132,-1.3857151277426447,1,0.42173371084238775,0.001,0.4999971091747284,0.0
692,1,692,-1,1,0.7037150740399208,-1.2002362651704055,1,0.42173371084238775,0.001,0.24100030958652496,0.0
693,1,693,-1,1,2.0598323148618807,-1.3711770145712932,1,0.42173371084238775,0.001,0.23100028932094574,1.0
694,1,694,-1,1,1.0084493835360844,-1.2386485127736162,1,0.42173371084238775,0.001,0.3139995038509369,0.0
695,1,695,1,1,0.7212233231538598,1.5519511640134234,1,0.42173371084238775,0.001,0.7709936499595642,1.0
696,1,696,-1,1,1.5493883716493582,-1.3068347382891878,1,0.42173371084238775,0.001,0.5149969458580017,0.0
697,1,697,1,-1,-1.3064958357846026,1.80754841045311,1,0.42173371084238775,0.001,0.31299951672554016,1.0
698,1,698,-1,1,0.2817915659056807,-1.147052131454501,1,0.42173371084238775,0.001,0.30499961972236633,0.0
699,1,699,1,-1,-0.19973627148891587,1.668039595409483,1,0.42173371084238775,0.001,0.9859908819198608,1.0
700,1,700,-1,1,1.7844836483014836,-1.3364688743076676,1,0.42173371084238775,0.001,0.18100018799304962,0.0
701,1,701,1,-1,0.8844197242796337,1.5313799963678745,1,0.42173371084238775,0.001,0.3349992334842682,1.0
702,1,702,1,1,-0.1031475825014887,1.6558644365204531,1,0.42173371084238775,0.001,0.6479952335357666,1.0
703,1,703,1,-1,-1.8522724252268468,1.876344423361382,1,0.42173371084238775,0.001,0.6589950919151306,1.0
704,1,704,-1,1,-0.8232686091778993,-1.0077575271418469,1,0.42173371084238775,0.001,0.35399898886680603,0.0
705,1,705,1,-1,-0.34924970496904684,1.686886003076347,1,0.42173371084238775,0.001,1.0479929447174072,1.0
706,1,706,1,1,1.5151390301157797,1.4518768180616317,1,0.42173371084238775,0.001,0.837992787361145,1.0
707,1,707,1,-1,0.21215475675907247,1.6161200718456226,1,0.42173371084238775,0.001,0.4929971992969513,1.0
708,1,708,-1,1,0.7308685330464072,-1.2036590021518936,1,0.42173371084238775,0.001,0.9619911909103394,1.0
709,1,709,-1,-1,-0.07647027023041764,-1.1018926534187203,1,0.42173371084238775,0.001,0.21200025081634521,0.0
710,1,710,-1,-1,-2.235683030122546,-0.8297204280525681,1,0.42173371084238775,0.001,2.0340349674224854,0.0
711,1,711,-1,-1,-0.037784564083345296,-1.1067690486158457,1,0.42173371084238775,0.001,0.1930002123117447,0.0
712,1,712,1,-1,-0.062046268444653996,1.6506835500788222,1,0.42173371084238775,0.001,1.0659937858581543,1.0
713,1,713,-1,-1,-0.9197259613389287,-0.9955989234700597,1,0.42173371084238775,0.001,0.6579951047897339,0.0
714,1,714,-1,1,0.04621146461401615,-1.1173568825139848,1,0.42173371084238775,0.001,0.2819999158382416,0.0
715,1,715,-1,1,-0.22203104763389525,-1.0835444843786715,1,0.42173371084238775,0.001,0.13400009274482727,0.0
716,1,716,1,-1,-0.6688975968103923,1.7271781316113806,1,0.42173371084238775,0.001,0.24400031566619873,1.0
717,1,717,-1,-1,-1.1867712717349244,-0.9619374345449461,1,0.42173371084238775,0.001,0.13800010085105896,0.0
718,1,718,-1,1,2.149095412103434,-1.3824287708922045,1,0.42173371084238775,0.001,0.59499591588974,0.0
719,1,719,1,-1,0.23629817946431952,1.613076754759088,1,0.42173371084238775,0.001,1.0189915895462036,1.0
720,1,720,1,1,0.12799120614566195,1.6267290221494883,1,0.42173371084238775,0.001,0.4269980490207672,1.0
721,1,721,-1,-1,-1.1164071553724262,-0.9708069440680653,1,0.42173371084238775,0.001,1.3340063095092773,0.0
722,1,722,1,-1,0.35371728685491244,1.5982758882800472,1,0.42173371084238775,0.001,0.8549925684928894,1.0
723,1,723,-1,1,1.8455093056930605,-1.3441612561262744,1,0.42173371084238775,0.001,1.248002290725708,0.0
724,1,724,-1,-1,-2.1352580758932342,-0.8423791543173439,1,0.42173371084238775,0.001,0.4469977915287018,0.0
725,1,725,-1,-1,-0.8938250416544464,-0.9988637758646461,1,0.42173371084238775,0.001,0.6489952206611633,0.0
726,1,726,1,-1,-1.2816541844286782,1.804417080527267,1,0.42173371084238775,0.001,1.3390065431594849,1.0
727,1,727,-1,1,-0.5067802462397022,-1.0476513920001125,1,0.42173371084238775,0.001,0.2430003136396408,0.0
728,1,728,-1,1,1.9345249466621097,-1.3553818201878496,1,0.42173371084238775,0.001,0.745993971824646,0.0
729,1,729,-1,1,0.005158965447203512,-1.1121821492673956,1,0.42173371084238775,0.001,0.9169917702674866,0.0
730,1,730,-1,1,-1.0238085575316425,-0.982479145579773,1,0.42173371084238775,0.001,2.2030227184295654,0.0
731,1,731,1,-1,-0.5593667604455127,1.7133715943245527,1,0.42173371084238775,0.001,0.32599934935569763,0.0
732,1,732,-1,1,0.42499372640535205,-1.16510299305759,1,0.42173371084238775,0.001,0.27100005745887756,0.0
733,1,733,1,1,1.0535424922510006,1.5100618006931,1,0.42173371084238775,0.001,1.8540306091308594,1.0
734,1,734,-1,1,0.5744650386009005,-1.1839440912690944,1,0.42173371084238775,0.001,1.7430254220962524,0.0
735,1,735,-1,-1,-2.378464841572155,-0.8117225521202343,1,0.42173371084238775,0.001,0.4089982807636261,0.0
736,1,736,-1,-1,0.4177197736325462,-1.1641860996647027,1,0.42173371084238775,0.001,0.34099915623664856,0.0
737,1,737,1,1,1.5054865150761607,1.4530935330364194,1,0.42173371084238775,0.001,1.0259919166564941,1.0
738,1,738,-1,1,2.0135028224302984,-1.3653371078750127,1,0.42173371084238775,0.001,0.4969971477985382,0.0
739,1,739,1,1,-0.8615007999886555,1.7514560737370541,1,0.42173371084238775,0.001,0.9679911136627197,1.0
740,1,740,1,-1,-3.2945736053806134,2.0581487962988088,1,0.42173371084238775,0.001,0.2550002634525299,0.0
741,1,741,-1,1,1.3840699398703498,-1.285996085282347,1,0.42173371084238775,0.001,0.29099979996681213,0.0
742,1,742,1,1,0.6396976283193676,1.5622276083730493,1,0.42173371084238775,0.001,0.32599934935569763,1.0
743,1,743,1,-1,-0.58418847680478,1.7165004114121503,1,0.42173371084238775,0.001,0.48399731516838074,1.0
744,1,744,1,-1,-2.0533396080440807,1.901689263671701,1,0.42173371084238775,0.001,0.2889998257160187,1.0
745,1,745,1,-1,-0.29403306508643007,1.6799258572152027,1,0.42173371084238775,0.001,0.24000030755996704,1.0
746,1,746,1,1,-1.1261020752267514,1.7848094881175214,1,0.42173371084238775,0.001,0.43199798464775085,1.0
747,1,747,-1,-1,-0.19262851262743874,-1.087250720990812,1,0.42173371084238775,0.001,0.21800026297569275,1.0
748,1,748,-1,1,1.09361559836293,-1.2493838505068893,1,0.42173371084238775,0.001,0.34799906611442566,0.0
749,1,749,-1,-1,-2.7454319220200034,-0.7654657641015303,1,0.42173371084238775,0.001,1.504014253616333,1.0
750,1,750,-1,1,0.6667140322480032,-1.1955722246124592,1,0.42173371084238775,0.001,0.9879908561706543,0.0
751,1,751,-1,1,-0.47317496701772477,-1.051887391249373,1,0.42173371084238775,0.001,0.5919959545135498,0.0
752,1,752,-1,-1,1.3745246386676784,-1.28479288478336,1,0.42173371084238775,0.001,0.2750000059604645,0.0
753,1,753,1,1,0.21390532847149563,1.6158994094785397,1,0.42173371084238775,0.001,0.3919984996318817,1.0
754,1,754,1,-1,-1.1023137827178686,1.7818109357608156,1,0.42173371084238775,0.001,0.5149969458580017,1.0
755,1,755,1,-1,-2.9746017677611025,2.0178158338797876,1,0.42173371084238775,0.001,0.3629988729953766,1.0
756,1,756,-1,1,2.7066513536589087,-1.4527095899935398,1,0.42173371084238775,0.001,0.21000024676322937,0.0
757,1,757,1,1,1.6236709929305435,1.4381961903850304,1,0.42173371084238775,0.001,0.9919908046722412,1.0
758,1,758,-1,1,0.08246192965356036,-1.1219263116705924,1,0.42173371084238775,0.001,0.24600031971931458,0.0
759,1,759,-1,1,2.4840627469418153,-1.4246519397440252,1,0.42173371084238775,0.001,0.22100026905536652,0.0
760,1,760,1,1,0.19231022537080888,1.6186215067989627,1,0.42173371084238775,0.001,0.6549951434135437,1.0
761,1,761,1,-1,-1.7099039747375748,1.8583986522399054,1,0.42173371084238775,0.001,0.38199862837791443,1.0
762,1,762,1,-1,0.18942941919124345,1.618984637030177,1,0.42173371084238775,0.001,0.1040000319480896,1.0
763,1,763,-1,1,0.32646406946854134,-1.1526831720509767,1,0.42173371084238775,0.001,0.3169994652271271,0.0
764,1,764,-1,1,0.7098046036417687,-1.201003860126287,1,0.42173371084238775,0.001,0.9319915771484375,1.0
765,1,765,-1,-1,-0.30548750826427984,-1.0730246638992438,1,0.42173371084238775,0.001,0.5609963536262512,0.0
766,1,766,-1,-1,-1.595801547356582,-0.9103785134298081,1,0.42173371084238775,0.001,0.1660001575946808,0.0
767,1,767,1,-1,-1.0047000084564799,1.7695065632318023,1,0.42173371084238775,0.001,0.331999272108078,1.0
768,1,768,-1,-1,-0.7977366007760796,-1.0109758776786126,1,0.42173371084238775,0.001,1.5860180854797363,0.0
769,1,769,1,1,-1.0629429064957778,1.776848173778751,1,0.42173371084238775,0.001,0.7289941906929016,1.0
770,1,770,1,1,2.3030978607798085,1.3525533459043746,1,0.42173371084238775,0.001,1.498013973236084,1.0
771,1,771,-1,1,-0.32290638101694535,-1.0708289871004926,1,0.42173371084238775,0.001,0.8939920663833618,0.0
772,1,772,-1,-1,-1.7522565808191948,-0.8906571059713868,1,0.42173371084238775,0.001,0.2580002248287201,0.0
773,1,773,1,-1,1.074569194093725,1.5074113512612752,1,0.42173371084238775,0.001,1.6120193004608154,1.0
774,1,774,-1,-1,-0.0009845212207929555,-1.1114077529369386,1,0.42173371084238775,0.001,0.8549925684928894,0.0
775,1,775,-1,1,1.478059937500088,-1.2978436749651365,1,0.42173371084238775,0.001,0.30499961972236633,0.0
776,1,776,1,1,1.0247091996417552,1.5136962833896934,1,0.42173371084238775,0.001,0.24400031566619873,1.0
777,1,777,-1,1,0.7961424664269132,-1.2118868859605563,1,0.42173371084238775,0.001,0.4659975469112396,0.0
778,1,778,1,1,2.170129683683615,1.3693141975144585,1,0.42173371084238775,0.001,0.7309941649436951,1.0
779,1,779,1,1,0.6965250545861595,1.5550644203092494,1,0.42173371084238775,0.001,0.202000230550766,0.0
780,1,780,1,-1,-0.5681297050612781,1.7144761775231774,1,0.42173371084238775,0.001,0.5219968557357788,1.0
781,1,781,-1,1,1.4138006626441755,-1.2897436904880057,1,0.42173371084238775,0.001,0.46399757266044617,0.0
782,1,782,-1,-1,0.6054519692088989,-1.187850043483487,1,0.42173371084238775,0.001,2.018036127090454,0.0
783,1,783,-1,1,1.7958341868902072,-1.3378996278694202,1,0.42173371084238775,0.001,0.38899853825569153,0.0
784,1,784,1,1,1.1898019184831454,1.4928860818600145,1,0.42173371084238775,0.001,1.2170008420944214,1.0
785,1,785,-1,-1,-1.3614226446693984,-0.939922349363065,1,0.42173371084238775,0.001,0.5089970231056213,0.0
786,1,786,-1,-1,-1.3498690449606037,-0.9413786991041111,1,0.42173371084238775,0.001,1.0959951877593994,0.0
787,1,787,-1,-1,0.5632446596883356,-1.1825297445429124,1,0.42173371084238775,0.001,0.631995439529419,0.0
788,1,788,-1,-1,1.172096282363635,-1.259276466375738,1,0.42173371084238775,0.001,0.46399757266044617,0.0
789,1,789,-1,1,-0.4217131928587512,-1.0583742302743693,1,0.42173371084238775,0.001,0.17900018393993378,0.0
790,1,790,1,1,0.23996910423156764,1.6126140288148862,1,0.42173371084238775,0.001,0.2250002771615982,1.0
791,1,791,-1,1,0.8998446156169904,-1.2249587078970505,1,0.42173371084238775,0.001,0.12300007045269012,0.0
792,1,792,-1,-1,-0.20917501737132982,-1.085165007576261,1,0.42173371084238775,0.001,0.39299848675727844,1.0
793,1,793,1,-1,-0.35477050205159333,1.687581908387608,1,0.42173371084238775,0.001,0.5079970359802246,1.0
794,1,794,-1,-1,-1.1152442701258334,-0.9709535276152219,1,0.42173371084238775,0.001,0.4059983193874359,0.0
795,1,795,-1,-1,-1.7147525449888832,-0.8953845497331854,1,0.42173371084238775,0.001,1.2900042533874512,0.0
796,1,796,-1,-1,-1.4004554035579806,-0.9350022076122277,1,0.42173371084238775,0.001,0.7379940748214722,0.0
797,1,797,1,-1,-0.24321048970382725,1.6735195902193494,1,0.42173371084238775,0.001,0.24900032579898834,1.0
798,1,798,-1,-1,-0.878979701907948,-1.000735054707646,1,0.42173371084238775,0.001,0.3919984996318817,0.0
799,1,799,-1,-1,2.2310393288620616,-1.3927579327949569,1,0.42173371084238775,0.001,0.14700011909008026,0.0
800,1,800,-1,1,2.0218136046996964,-1.3663846952859489,1,0.42173371084238775,0.001,0.7799935340881348,0.0
801,1,801,1,1,0.5582419925864894,1.5724952216707493,1,0.42173371084238775,0.001,0.6089957356452942,1.0
802,1,802,-1,-1,-0.5309304058141503,-1.0446072257204295,1,0.42173371084238775,0.001,0.7229942679405212,0.0
803,1,803,1,1,1.2378355026574477,1.4868313716712485,1,0.42173371084238775,0.001,0.41099825501441956,1.0
804,1,804,-1,1,-0.44529484796725827,-1.0554017248928151,1,0.42173371084238775,0.001,1.8720314502716064,1.0
805,1,805,1,-1,-1.2746902899637869,1.8035392704805076,1,0.42173371084238775,0.001,1.2850040197372437,1.0
806,1,806,1,1,1.5107475769171954,1.452430367768197,1,0.42173371084238775,0.001,0.18600019812583923,1.0
807,1,807,-1,1,1.8602294815953655,-1.3460167578663214,1,0.42173371084238775,0.001,0.2590002119541168,0.0
808,1,808,-1,-1,-0.5313750949671107,-1.0445511719407345,1,0.42173371084238775,0.001,0.3629988729953766,0.0
809,1,809,-1,-1,-1.7222925028592033,-0.8944341259718722,1,0.42173371084238775,0.001,0.3309992849826813,0.0
810,1,810,1,-1,-2.559196476000359,1.9654533317736749,1,0.42173371084238775,0.001,0.6589950919151306,1.0
811,1,811,-1,1,0.08644041835191307,-1.1224278065407316,1,0.42173371084238775,0.001,0.14500011503696442,0.0
812,1,812,-1,1,1.5551979530295177,-1.3075670453235178,1,0.42173371084238775,0.001,0.7139943838119507,0.0
813,1,813,1,1,1.2137680655191045,1.4898651106554188,1,0.42173371084238775,0.001,0.8689923882484436,1.0
814,1,814,1,1,-0.6553042925366082,1.725464673844273,1,0.42173371084238775,0.001,0.5439965724945068,1.0
815,1,815,-1,1,1.4150944098870741,-1.2899067693993116,1,0.42173371084238775,0.001,0.15100012719631195,0.0
816,1,816,1,1,-0.4626351135576101,1.701178415363287,1,0.42173371084238775,0.001,1.1039955615997314,1.0
817,1,817,1,1,0.0005220037553211876,1.642796719193832,1,0.42173371084238775,0.001,0.4649975597858429,1.0
818,1,818,-1,1,2.8301860775055228,-1.4682813397181969,1,0.42173371084238775,0.001,0.22300027310848236,0.0
819,1,819,1,1,0.30399293924186954,1.604543721907243,1,0.42173371084238775,0.001,0.5479965209960938,1.0
820,1,820,-1,-1,-1.030305765635907,-0.9816601620959533,1,0.42173371084238775,0.001,1.258002758026123,0.0
821,1,821,-1,1,1.125077917462441,-1.2533497262017521,1,0.42173371084238775,0.001,1.5530165433883667,0.0
822,1,822,1,1,1.6230988395671628,1.4382683112325239,1,0.42173371084238775,0.001,1.090994954109192,1.0
823,1,823,1,-1,-1.1777182929169592,1.7913157949968996,1,0.42173371084238775,0.001,0.16800016164779663,1.0
824,1,824,-1,1,0.9319585124964171,-1.2290067160142726,1,0.42173371084238775,0.001,0.3419991433620453,0.0
825,1,825,-1,-1,-0.8638219153387839,-1.0026457179728818,1,0.42173371084238775,0.001,2.4760029315948486,0.0
826,1,826,-1,1,0.8252520724496661,-1.2155561984053107,1,0.42173371084238775,0.001,0.482997328042984,0.0
827,1,827,-1,1,-1.8073478479085643,-0.8837127635515579,1,0.42173371084238775,0.001,0.07399997115135193,0.0
828,1,828,1,1,1.5872936460366596,1.4427816132025204,1,0.42173371084238775,0.001,0.4619975984096527,1.0
829,1,829,-1,1,0.6018358556170974,-1.1873942265757051,1,0.42173371084238775,0.001,0.9489913582801819,0.0
830,1,830,-1,-1,1.4597354608473192,-1.2955338453448708,1,0.42173371084238775,0.001,1.0479929447174072,0.0
831,1,831,-1,1,2.175371761397682,-1.385740946790179,1,0.42173371084238775,0.001,0.907991886138916,0.0
832,1,832,-1,1,0.9963238160239266,-1.2371200655752141,1,0.42173371084238775,0.001,0.44599780440330505,0.0
833,1,833,1,1,1.1677514681479368,1.495665576428377,1,0.42173371084238775,0.001,0.5309967398643494,1.0
834,1,834,1,-1,-1.910760070106661,1.8837168846394265,1,0.42173371084238775,0.001,0.5899959802627563,1.0
835,1,835,1,1,-0.24546169366375614,1.6738033580827616,1,0.42173371084238775,0.001,0.31599947810173035,1.0
836,1,836,-1,-1,-0.9339768235982697,-0.9938025794660973,1,0.42173371084238775,0.001,0.7289941906929016,0.0
837,1,837,-1,1,-0.5509126598620362,-1.0420884306053446,1,0.42173371084238775,0.001,1.4190102815628052,0.0
838,1,838,1,1,1.442480019143876,1.4610356027244802,1,0.42173371084238775,0.001,0.37999865412712097,1.0
839,1,839,-1,-1,0.24697977501907753,-1.1426640494782434,1,0.42173371084238775,0.001,0.4749974310398102,0.0
840,1,840,1,1,1.069285549232239,1.5080773631553819,1,0.42173371084238775,0.001,0.3279993236064911,1.0
841,1,841,1,-1,-1.4253912162854339,1.822535363521266,1,0.42173371084238775,0.001,0.7929933667182922,1.0
842,1,842,-1,1,0.6725131056078886,-1.1963032070940096,1,0.42173371084238775,0.001,0.546996533870697,0.0
843,1,843,1,1,-0.10147894660091872,1.6556541022936369,1,0.42173371084238775,0.001,0.27100005745887756,1.0
844,1,844,1,1,-0.16127947747891225,1.6631920549537322,1,0.42173371084238775,0.001,0.22600027918815613,1.0
845,1,845,1,1,-0.6491098623235079,1.7246838559983932,1,0.42173371084238775,0.001,0.7309941649436951,1.0
846,1,846,-1,-1,-1.4611550331618268,-0.9273509221182473,1,0.42173371084238775,0.001,1.1239964962005615,0.0
847,1,847,1,-1,-0.15978555462608063,1.6630037435863054,1,0.42173371084238775,0.001,1.0529931783676147,1.0
848,1,848,-1,1,-2.101274050113942,-0.8466628951765415,1,0.42173371084238775,0.001,0.45699766278266907,0.0
849,1,849,1,1,2.3277043357111005,1.349451660343383,1,0.42173371084238775,0.001,1.8310295343399048,1.0
850,1,850,-1,1,1.7547820763885615,-1.3327249436146975,1,0.42173371084238775,0.001,0.42099812626838684,0.0
851,1,851,1,-1,-1.4390503336742366,1.8242571171368909,1,0.42173371084238775,0.001,0.37899866700172424,1.0
852,1,852,1,-1,1.298851124760823,1.4791402548167865,1,0.42173371084238775,0.001,0.3779986798763275,1.0
853,1,853,-1,1,1.8420283830831239,-1.3437224802582022,1,0.42173371084238775,0.001,0.2899998128414154,0.0
854,1,854,-1,-1,-1.3895431460717602,-0.936377715139305,1,0.42173371084238775,0.001,0.18300019204616547,0.0
855,1,855,1,1,0.8719307781315405,1.5329542480251195,1,0.42173371084238775,0.001,0.9149917960166931,1.0
856,1,856,1,1,1.092695798965714,1.5051264636957773,1,0.42173371084238775,0.001,0.6339954137802124,1.0
857,1,857,1,-1,-1.0745161307524556,1.7783069972254772,1,0.42173371084238775,0.001,0.33399924635887146,1.0
858,1,858,-1,1,-0.8480093544829035,-1.004638916585277,1,0.42173371084238775,0.001,0.7819935083389282,0.0
859,1,859,1,-1,-1.6495812548342388,1.8507948768171212,1,0.42173371084238775,0.001,0.9949907660484314,1.0
860,1,860,-1,1,1.1176857111413145,-1.2524179267597706,1,0.42173371084238775,0.001,0.4649975597858429,0.0
861,1,861,-1,-1,-1.1429773286715887,-0.9674577311838479,1,0.42173371084238775,0.001,0.12800008058547974,0.0
862,1,862,-1,1,-0.10661862101646158,-1.0980924055334833,1,0.42173371084238775,0.001,0.2959997355937958,0.0
863,1,863,-1,1,2.5495246819605297,-1.432903521460182,1,0.42173371084238775,0.001,0.3659988343715668,0.0
864,1,864,1,-1,-1.217966105849832,1.7963890962553675,1,0.42173371084238775,0.001,0.86399245262146,1.0
865,1,865,1,-1,0.15130983020175448,1.623789672253214,1,0.42173371084238775,0.001,0.27100005745887756,1.0
866,1,866,-1,1,0.6623874398061883,-1.1950268507081292,1,0.42173371084238775,0.001,0.2680000960826874,0.0
867,1,867,-1,-1,-0.8619292659672877,-1.0028842894563625,1,0.42173371084238775,0.001,1.4520118236541748,0.0
868,1,868,1,-1,-0.7270325919637003,1.7345061408267932,1,0.42173371084238775,0.001,0.30499961972236633,0.0
869,1,869,-1,-1,0.7447888098476765,-1.2054136753295863,1,0.42173371084238775,0.001,0.2200002670288086,0.0
870,1,870,1,-1,-0.013915161815727939,1.6446165470285137,1,0.42173371084238775,0.001,0.8089931607246399,1.0
871,1,871,-1,1,1.6080326958325721,-1.3142269492442755,1,0.42173371084238775,0.001,0.30899956822395325,0.0
872,1,872,1,1,3.5778730251207436,1.1918658954756782,1,0.42173371084238775,0.001,0.8099931478500366,1.0
873,1,873,1,1,0.8416561941824148,1.5367704078026672,1,0.42173371084238775,0.001,0.2899998128414154,1.0
874,1,874,-1,1,1.864650098892408,-1.34657398375419,1,0.42173371084238775,0.001,0.2290002852678299,0.0
875,1,875,1,-1,-0.6606527443966171,1.726138854764302,1,0.42173371084238775,0.001,0.7009945511817932,1.0
876,1,876,1,-1,-3.3103673237280904,2.0601396197828516,1,0.42173371084238775,0.001,0.40799829363822937,1.0
877,1,877,-1,-1,-2.1036543756356743,-0.8463628513335355,1,0.42173371084238775,0.001,0.31999942660331726,0.0
878,1,878,-1,1,0.946016514252378,-1.230778749643007,1,0.42173371084238775,0.001,0.9059919118881226,0.0
879,1,879,1,1,0.6389364549758396,1.5623235554916683,1,0.42173371084238775,0.001,1.0819945335388184,1.0
880,1,880,1,1,1.1066648343975087,1.5033656444146426,1,0.42173371084238775,0.001,0.331999272108078,1.0
881,1,881,-1,1,-0.2279222250691334,-1.0828018920309606,1,0.42173371084238775,0.001,0.09600001573562622,0.0
882,1,882,1,-1,0.48142454316788075,1.582178184157623,1,0.42173371084238775,0.001,0.3069995939731598,1.0
883,1,883,1,1,0.7644498528458425,1.546502390738431,1,0.42173371084238775,0.001,0.39699843525886536,1.0
884,1,884,1,1,-0.19963348201950049,1.6680266386322933,1,0.42173371084238775,0.001,0.4649975597858429,1.0
885,1,885,1,1,0.643753859264938,1.56171631396818,1,0.42173371084238775,0.001,0.16400015354156494,1.0
886,1,886,1,1,1.5610710576652163,1.4460870124501022,1,0.42173371084238775,0.001,0.4229981005191803,1.0
887,1,887,-1,1,0.6866865295238541,-1.1980897898708078,1,0.42173371084238775,0.001,1.6100192070007324,0.0
888,1,888,-1,-1,-0.6352479409946371,-1.0314578333945876,1,0.42173371084238775,0.001,0.42899802327156067,0.0
889,1,889,1,-1,-1.3362901597104306,1.8113040326858063,1,0.42173371084238775,0.001,0.1530001312494278,0.0
890,1,890,1,1,0.9181998047151321,1.5271219631457864,1,0.42173371084238775,0.001,1.7790271043777466,1.0
891,1,891,1,-1,-1.2539222337521685,1.8009214237445854,1,0.42173371084238775,0.001,0.48799726366996765,1.0
892,1,892,1,-1,-1.3576957894582171,1.8140022465867423,1,0.42173371084238775,0.001,0.5939959287643433,1.0
893,1,893,-1,1,1.332652779378257,-1.2795148698814893,1,0.42173371084238775,0.001,1.1759989261627197,0.0
894,1,894,-1,-1,-0.09775949207453127,-1.099209112920416,1,0.42173371084238775,0.001,0.6959946155548096,0.0
895,1,895,1,1,1.5763044264858213,1.444166821921062,1,0.42173371084238775,0.001,0.9279916286468506,1.0
896,1,896,1,-1,-2.1029814222729653,1.9079466938336846,1,0.42173371084238775,0.001,0.35099902749061584,1.0
897,1,897,1,-1,-0.2379350805899491,1.6728546164544145,1,0.42173371084238775,0.001,0.5649963021278381,1.0
898,1,898,1,-1,-0.9663189911441801,1.7646685745501185,1,0.42173371084238775,0.001,0.16800016164779663,1.0
899,1,899,1,1,0.6418731714598598,1.5619533776770629,1,0.42173371084238775,0.001,0.5819960832595825,1.0
900,1,900,1,-1,-1.25190324687706,1.800666927216503,1,0.42173371084238775,0.001,0.35499897599220276,1.0
901,1,901,1,-1,-0.0955721640189422,1.6549095428921952,1,0.42173371084238775,0.001,0.2720000445842743,1.0
902,1,902,-1,1,-0.034162316070888155,-1.1072256387771728,1,0.42173371084238775,0.001,0.28399989008903503,0.0
903,1,903,-1,-1,-1.4172987123888225,-0.932879081567322,1,0.42173371084238775,0.001,1.0669938325881958,0.0
904,1,904,1,-1,-0.5724801115134821,1.715024553221644,1,0.42173371084238775,0.001,0.2750000059604645,1.0
905,1,905,-1,1,-0.036680021879340385,-1.1069082779290746,1,0.42173371084238775,0.001,0.3039996325969696,0.0
906,1,906,1,-1,1.7469247919018098,1.4226598516906825,1,0.42173371084238775,0.001,0.21300025284290314,1.0
907,1,907,1,-1,0.9001448297675294,1.5293978216446333,1,0.42173371084238775,0.001,0.616995632648468,0.0
908,1,908,-1,-1,-0.5329946858265759,-1.0443470199198723,1,0.42173371084238775,0.001,0.14100010693073273,0.0
909,1,909,-1,1,-1.0663051606403657,-0.9771223807192406,1,0.42173371084238775,0.001,0.8539925813674927,0.0
910,1,910,-1,-1,-0.6117489605753458,-1.0344199174992008,1,0.42173371084238775,0.001,1.0279920101165771,0.0
911,1,911,-1,-1,-0.5466805167152529,-1.0426218990248188,1,0.42173371084238775,0.001,0.18200019001960754,0.0
912,1,912,-1,1,0.7286428452923155,-1.2033784506470797,1,0.42173371084238775,0.001,0.1710001677274704,0.0
913,1,913,-1,-1,0.046762335149451606,-1.117426320626941,1,0.42173371084238775,0.001,0.4589976370334625,0.0
914,1,914,-1,1,-0.5105965877372247,-1.047170336044242,1,0.42173371084238775,0.001,0.4929971992969513,0.0
915,1,915,1,1,-0.24936446059171358,1.674295308102509,1,0.42173371084238775,0.001,1.909033179283142,1.0
916,1,916,1,-1,0.3446819617546283,1.5994148054748372,1,0.42173371084238775,0.001,0.2799999415874481,0.0
917,1,917,1,-1,0.5550363682474679,1.5728992957510095,1,0.42173371084238775,0.001,0.44599780440330505,1.0
918,1,918,-1,1,0.7836890766695306,-1.2103171162432875,1,0.42173371084238775,0.001,0.5259968042373657,0.0
919,1,919,1,-1,-0.2086035829858775,1.6691573342205779,1,0.42173371084238775,0.001,0.3449991047382355,1.0
920,1,920,1,-1,-0.9917119421665144,1.7678693966815642,1,0.42173371084238775,0.001,0.189000204205513,1.0
921,1,921,1,1,-0.061666587764159564,1.6506356907211626,1,0.42173371084238775,0.001,0.2859998643398285,1.0
922,1,922,1,-1,-0.42461115938837213,1.6963854350624576,1,0.42173371084238775,0.001,0.2660001218318939,1.0
923,1,923,-1,-1,-0.19330379026361616,-1.0871656011636266,1,0.42173371084238775,0.001,0.21300025284290314,0.0
924,1,924,-1,1,1.436838072047004,-1.292647592827001,1,0.42173371084238775,0.001,0.1400001049041748,0.0
925,1,925,-1,1,2.5588981438926943,-1.4340850613440004,1,0.42173371084238775,0.001,1.244002103805542,0.0
926,1,926,-1,-1,-1.939044668845992,-0.8671121684207761,1,0.42173371084238775,0.001,0.8649924397468567,0.0
927,1,927,-1,-1,0.30970217567311287,-1.1505703085016337,1,0.42173371084238775,0.001,0.36099889874458313,0.0
928,1,928,-1,-1,-0.02852660679063923,-1.1079360289549331,1,0.42173371084238775,0.001,1.617019534111023,0.0
929,1,929,1,-1,-1.7754741539445311,1.866663878309293,1,0.42173371084238775,0.001,1.092995047569275,1.0
930,1,930,1,1,0.024151057855914315,1.6398182390934377,1,0.42173371084238775,0.001,0.572996199131012,1.0
931,1,931,1,-1,-1.387218354740844,1.817723613207367,1,0.42173371084238775,0.001,0.5239968299865723,1.0
932,1,932,1,1,0.49529638737170467,1.5804296159863809,1,0.42173371084238775,0.001,0.2380003035068512,1.0
933,1,933,-1,-1,0.8772194680147751,-1.2221067718180694,1,0.42173371084238775,0.001,0.7309941649436951,0.0
934,1,934,-1,1,0.12311869526273755,-1.1270511620686574,1,0.42173371084238775,0.001,0.9369915127754211,0.0
935,1,935,-1,-1,0.19480044320308965,-1.1360867611617433,1,0.42173371084238775,0.001,0.21700026094913483,0.0
936,1,936,1,-1,-2.084187089470928,1.9055776380935463,1,0.42173371084238775,0.001,0.42099812626838684,1.0
937,1,937,-1,1,0.8671723313326749,-1.2208403141534427,1,0.42173371084238775,0.001,0.4929971992969513,0.0
938,1,938,1,1,0.8868870884621343,1.5310689811623264,1,0.42173371084238775,0.001,0.2650001347064972,1.0
939,1,939,1,-1,-2.538462650666361,1.9628397998946814,1,0.42173371084238775,0.001,0.31599947810173035,1.0
940,1,940,1,-1,0.21975308314000563,1.6151622906400964,1,0.42173371084238775,0.001,0.34799906611442566,1.0
941,1,941,1,-1,-0.46320467191296555,1.701250209105864,1,0.42173371084238775,0.001,0.3809986412525177,1.0
942,1,942,1,1,-0.47892919250916277,1.7032323101025701,1,0.42173371084238775,0.001,1.0309921503067017,1.0
943,1,943,-1,1,0.8230077242743179,-1.2152732947245213,1,0.42173371084238775,0.001,0.9499913454055786,0.0
944,1,944,1,1,-0.36871835515192153,1.6893400576019477,1,0.42173371084238775,0.001,0.6079957485198975,1.0
945,1,945,1,-1,-0.8258327991859713,1.7469600651300499,1,0.42173371084238775,0.001,0.30499961972236633,1.0
946,1,946,-1,-1,-1.9929822304456657,-0.8603132524250496,1,0.42173371084238775,0.001,0.47399744391441345,0.0
947,1,947,-1,1,0.9190132873529495,-1.2273749496591406,1,0.42173371084238775,0.001,1.112995982170105,0.0
948,1,948,1,1,-0.08700211278085723,1.6538292742126566,1,0.42173371084238775,0.001,0.14200010895729065,1.0
949,1,949,1,-1,0.0461952894690798,1.637039528404945,1,0.42173371084238775,0.001,0.9089918732643127,1.0
950,1,950,-1,1,0.31523807092606826,-1.1512681169614474,1,0.42173371084238775,0.001,1.9690359830856323,0.0
951,1,951,-1,-1,-0.7059499202679265,-1.0225457357106318,1,0.42173371084238775,0.001,0.19000020623207092,0.0
952,1,952,-1,1,0.3630940349501489,-1.1573004378459013,1,0.42173371084238775,0.001,0.48499730229377747,0.0
