,subj_idx,trial_idx,S,X,M,v,a,z,t,rt,response
0,1,0,-1,-1,-0.7507195390597989,0.6954438753483116,1,0.5435308817283686,0.001,0.8329928517341614,1.0
1,1,1,1,1,0.9255590211222664,1.7145472121725496,1,0.5435308817283686,0.001,0.4449978172779083,1.0
2,1,2,-1,1,0.584534704786593,0.9118261677368735,1,0.5435308817283686,0.001,0.13600009679794312,1.0
3,1,3,1,1,-0.23024686606651446,1.5706937012404971,1,0.5435308817283686,0.001,0.48799726366996765,1.0
4,1,4,1,1,0.35778683567785646,1.6438813476090803,1,0.5435308817283686,0.001,0.4059983193874359,1.0
5,1,5,-1,-1,-1.4020932403517135,0.6143728279533582,1,0.5435308817283686,0.001,0.390998512506485,1.0
6,1,6,-1,-1,-1.7556792589115362,0.5703649277080738,1,0.5435308817283686,0.001,0.41799816489219666,1.0
7,1,7,-1,1,1.7052820236715869,1.0513162313161721,1,0.5435308817283686,0.001,1.1909996271133423,1.0
8,1,8,1,-1,-0.8092241113558843,1.4484388939992858,1,0.5435308817283686,0.001,1.3110052347183228,1.0
9,1,9,1,1,1.245017959074534,1.754307599563233,1,0.5435308817283686,0.001,0.7149943709373474,1.0
10,1,10,-1,-1,1.662519767910056,0.9957996278797443,1,0.5435308817283686,0.001,0.4229981005191803,1.0
11,1,11,-1,1,1.27043341604793,0.997194254932468,1,0.5435308817283686,0.001,0.28499987721443176,1.0
12,1,12,-1,1,0.12645081172170625,0.8548122893259533,1,0.5435308817283686,0.001,0.513996958732605,1.0
13,1,13,-1,-1,-1.8374832275285646,0.5601834705757198,1,0.5435308817283686,0.001,0.29799970984458923,1.0
14,1,14,-1,-1,-0.1928988455466038,0.7648711607790865,1,0.5435308817283686,0.001,0.23100028932094574,1.0
15,1,15,1,-1,-0.08855510095381991,1.5381345500911743,1,0.5435308817283686,0.001,0.546996533870697,1.0
16,1,16,1,1,1.0450408308323607,1.7294181156779105,1,0.5435308817283686,0.001,0.21400025486946106,1.0
17,1,17,1,-1,0.8417534210428455,1.6539222862695506,1,0.5435308817283686,0.001,0.7369940876960754,1.0
18,1,18,1,1,0.6475039795201909,1.6799400221502658,1,0.5435308817283686,0.001,0.8909921050071716,1.0
19,1,19,-1,1,1.285926619404309,0.999122564627983,1,0.5435308817283686,0.001,0.4159981906414032,1.0
20,1,20,1,-1,0.028572789199081017,1.5527124808780992,1,0.5435308817283686,0.001,0.24600031971931458,1.0
21,1,21,-1,1,0.6985591177165807,0.9260178346194854,1,0.5435308817283686,0.001,0.8229929804801941,1.0
22,1,22,1,1,0.1414859136571493,1.6169601773715763,1,0.5435308817283686,0.001,0.1490001231431961,1.0
23,1,23,-1,-1,-0.2961409813220246,0.7520214739311147,1,0.5435308817283686,0.001,0.933991551399231,0.0
24,1,24,1,1,0.4947819304278379,1.660931983514896,1,0.5435308817283686,0.001,0.6189956068992615,1.0
25,1,25,-1,-1,-1.195899331071009,0.6400360626812756,1,0.5435308817283686,0.001,0.3979984223842621,1.0
26,1,26,-1,-1,1.2354834011131846,0.9426499759007143,1,0.5435308817283686,0.001,0.2899998128414154,1.0
27,1,27,1,-1,-0.33140256588387684,1.5079093532494219,1,0.5435308817283686,0.001,0.320999413728714,1.0
28,1,28,1,1,-0.350804985743184,1.5556888384178675,1,0.5435308817283686,0.001,0.59499591588974,1.0
29,1,29,-1,1,-0.5909841855915814,0.7655191438479817,1,0.5435308817283686,0.001,0.4999971091747284,1.0
30,1,30,1,1,0.7170682871778438,1.6885981108509995,1,0.5435308817283686,0.001,0.8309928774833679,1.0
31,1,31,1,-1,-0.8458713330245196,1.4438777202231592,1,0.5435308817283686,0.001,0.24500031769275665,1.0
32,1,32,1,-1,0.7025823995742551,1.6366008309281599,1,0.5435308817283686,0.001,0.5819960832595825,1.0
33,1,33,1,-1,0.2291482524295092,1.5776764345249343,1,0.5435308817283686,0.001,0.4049983322620392,1.0
34,1,34,-1,-1,-1.8380860728147237,0.5601084394550757,1,0.5435308817283686,0.001,2.063032865524292,1.0
35,1,35,-1,1,1.2700009837392658,0.9971404336926463,1,0.5435308817283686,0.001,0.3949984610080719,1.0
36,1,36,-1,-1,0.4629249222049465,0.8464960708002778,1,0.5435308817283686,0.001,0.6029958128929138,0.0
37,1,37,1,-1,0.42648617143640566,1.6022374380669853,1,0.5435308817283686,0.001,0.7499939203262329,1.0
38,1,38,-1,-1,0.13285709649819322,0.8054152837062508,1,0.5435308817283686,0.001,1.7550259828567505,1.0
39,1,39,1,-1,-1.559664242351596,1.3550378750352683,1,0.5435308817283686,0.001,0.6939946413040161,1.0
40,1,40,1,1,0.58450427868437,1.6720989752639719,1,0.5435308817283686,0.001,0.36499884724617004,1.0
41,1,41,-1,1,0.24398981073129145,0.8694413874006253,1,0.5435308817283686,0.001,0.8449926972389221,1.0
42,1,42,-1,1,0.0698954189030101,0.8477733116660464,1,0.5435308817283686,0.001,0.5259968042373657,0.0
43,1,43,1,-1,-0.016288538525007223,1.5471289658867715,1,0.5435308817283686,0.001,1.0369924306869507,1.0
44,1,44,1,1,0.8657525930148866,1.7071036052875928,1,0.5435308817283686,0.001,0.5489965081214905,1.0
45,1,45,-1,-1,0.08914388341097279,0.7999746649601287,1,0.5435308817283686,0.001,0.19500021636486053,1.0
46,1,46,1,1,1.8705480064577709,1.8321621030806339,1,0.5435308817283686,0.001,0.4029983580112457,1.0
47,1,47,1,-1,-0.5715137415847737,1.4780247194874248,1,0.5435308817283686,0.001,0.8729923367500305,1.0
48,1,48,-1,1,1.6872738441729602,1.0490749035334657,1,0.5435308817283686,0.001,0.546996533870697,1.0
49,1,49,-1,-1,-1.4523141540839384,0.6081222500296135,1,0.5435308817283686,0.001,2.320014238357544,0.0
50,1,50,-1,-1,-1.4313145822840274,0.6107358914420435,1,0.5435308817283686,0.001,0.8129931092262268,0.0
51,1,51,1,1,1.161150311137715,1.7438692934920732,1,0.5435308817283686,0.001,0.4889972507953644,1.0
52,1,52,1,1,-0.09897024439912627,1.5870326065354725,1,0.5435308817283686,0.001,0.28099992871284485,1.0
53,1,53,-1,-1,-1.1727979364716252,0.6429113004330325,1,0.5435308817283686,0.001,1.25600266456604,1.0
54,1,54,-1,-1,0.2728946616717074,0.822844590509302,1,0.5435308817283686,0.001,0.8119931221008301,1.0
55,1,55,1,1,0.5103093173245435,1.6628645477503354,1,0.5435308817283686,0.001,0.8689923882484436,1.0
56,1,56,-1,-1,-0.6870791234669114,0.7033646666521861,1,0.5435308817283686,0.001,0.7299941778182983,1.0
57,1,57,-1,-1,-1.465241499803506,0.606513291216196,1,0.5435308817283686,0.001,1.4670125246047974,1.0
58,1,58,-1,1,1.3020569884008806,1.0011301770121266,1,0.5435308817283686,0.001,1.0339922904968262,1.0
59,1,59,-1,1,1.172338253369066,0.9849851688625504,1,0.5435308817283686,0.001,0.6939946413040161,1.0
60,1,60,1,-1,-0.38633313452374457,1.5010726038921758,1,0.5435308817283686,0.001,0.20000022649765015,1.0
61,1,61,-1,-1,-2.1962090345906264,0.5155358637588642,1,0.5435308817283686,0.001,1.2840039730072021,1.0
62,1,62,-1,-1,-2.1947997250339304,0.5157112687554712,1,0.5435308817283686,0.001,0.999990701675415,1.0
63,1,63,1,1,3.254176875283599,2.0043708388326693,1,0.5435308817283686,0.001,0.6739948987960815,1.0
64,1,64,1,-1,-0.290313548792347,1.513023360224884,1,0.5435308817283686,0.001,0.1850001960992813,1.0
65,1,65,1,-1,-0.5056626084952964,1.4862206603446007,1,0.5435308817283686,0.001,0.6529951691627502,1.0
66,1,66,1,-1,0.02624441994991733,1.552422688193228,1,0.5435308817283686,0.001,1.238001823425293,1.0
67,1,67,1,-1,-1.1638781740122308,1.4042980632205804,1,0.5435308817283686,0.001,0.13400009274482727,1.0
68,1,68,1,1,-1.3682955564781905,1.429050280366829,1,0.5435308817283686,0.001,0.23500029742717743,1.0
69,1,69,-1,1,0.8274087667622918,0.9420546748908837,1,0.5435308817283686,0.001,0.42799803614616394,1.0
70,1,70,1,1,1.4311664072050034,1.7774759430670477,1,0.5435308817283686,0.001,0.34699907898902893,1.0
71,1,71,1,-1,0.011124831081031572,1.550540879174303,1,0.5435308817283686,0.001,0.48499730229377747,1.0
72,1,72,-1,1,0.36523071136609325,0.8845312302697433,1,0.5435308817283686,0.001,0.929991602897644,1.0
73,1,73,-1,1,-0.20688964465580484,0.8133241852099329,1,0.5435308817283686,0.001,0.789993405342102,1.0
74,1,74,1,1,-1.4118910043908812,1.4236243188689606,1,0.5435308817283686,0.001,0.2070002406835556,1.0
75,1,75,1,-1,-0.9994323478726932,1.4247652625232523,1,0.5435308817283686,0.001,0.6509951949119568,0.0
76,1,76,1,1,0.9829037928505671,1.7216844372361608,1,0.5435308817283686,0.001,0.15900014340877533,1.0
77,1,77,1,1,1.361830957228592,1.7688463383715567,1,0.5435308817283686,0.001,0.39999839663505554,1.0
78,1,78,1,1,2.2590263815074505,1.8805127636816101,1,0.5435308817283686,0.001,0.2869998514652252,1.0
79,1,79,1,-1,-0.9644151377948949,1.4291235623628462,1,0.5435308817283686,0.001,1.3400065898895264,1.0
80,1,80,-1,-1,-0.5104861172487537,0.7253437240632152,1,0.5435308817283686,0.001,1.1019954681396484,1.0
81,1,81,-1,-1,0.3296701642539783,0.8299109633941614,1,0.5435308817283686,0.001,0.3979984223842621,1.0
82,1,82,-1,1,2.2045328732091845,1.1134538171667474,1,0.5435308817283686,0.001,0.2680000960826874,1.0
83,1,83,-1,-1,-2.6083827701779594,0.4642360394238002,1,0.5435308817283686,0.001,0.24100030958652496,1.0
84,1,84,1,1,2.142382642562078,1.8659950911541359,1,0.5435308817283686,0.001,0.26300016045570374,1.0
85,1,85,-1,-1,-0.12958218179576197,0.7727516573936318,1,0.5435308817283686,0.001,0.32299938797950745,1.0
86,1,86,-1,1,1.7323880909342764,1.0546898972461687,1,0.5435308817283686,0.001,0.5019971132278442,1.0
87,1,87,1,1,2.379501836473924,1.895507337917788,1,0.5435308817283686,0.001,0.2869998514652252,1.0
88,1,88,1,-1,-0.9762848315496493,1.427646240660962,1,0.5435308817283686,0.001,0.07799997925758362,1.0
89,1,89,-1,-1,-1.6171042676176532,0.5876122001488548,1,0.5435308817283686,0.001,0.3279993236064911,1.0
90,1,90,1,1,0.6193867420763925,1.6764405043083568,1,0.5435308817283686,0.001,0.29199978709220886,1.0
91,1,91,-1,-1,-1.93629286724335,0.5478854595130875,1,0.5435308817283686,0.001,0.23100028932094574,1.0
92,1,92,-1,-1,1.3633101354402828,0.9585595025156521,1,0.5435308817283686,0.001,1.7670265436172485,1.0
93,1,93,1,1,0.7199942634269574,1.688962282690756,1,0.5435308817283686,0.001,0.4369979202747345,1.0
94,1,94,1,-1,0.30116062306147307,1.5866392131893903,1,0.5435308817283686,0.001,0.320999413728714,1.0
95,1,95,-1,-1,-0.8655808128214276,0.681148051383505,1,0.5435308817283686,0.001,0.1580001413822174,1.0
96,1,96,-1,1,0.3901669365845573,0.8876348340727949,1,0.5435308817283686,0.001,0.6529951691627502,1.0
97,1,97,1,1,-0.08562095059165864,1.5886940817052682,1,0.5435308817283686,0.001,0.24400031566619873,1.0
98,1,98,-1,-1,-2.041471564034545,0.5347947450805179,1,0.5435308817283686,0.001,2.3120148181915283,1.0
99,1,99,1,1,-0.37312037562518574,1.5529114281122742,1,0.5435308817283686,0.001,0.3419991433620453,1.0
100,1,100,1,1,-0.6994088073396789,1.512301030640768,1,0.5435308817283686,0.001,0.8769922852516174,1.0
101,1,101,1,1,1.422660252047283,1.7764172529379056,1,0.5435308817283686,0.001,0.25600025057792664,1.0
102,1,102,-1,1,0.19440354706334545,0.8632697990727737,1,0.5435308817283686,0.001,1.0759942531585693,1.0
103,1,103,-1,-1,-0.06625586500415426,0.7806333554415846,1,0.5435308817283686,0.001,0.29799970984458923,1.0
104,1,104,-1,-1,0.7739102420862964,0.885201817681417,1,0.5435308817283686,0.001,0.2680000960826874,0.0
105,1,105,1,-1,-1.9004725088862722,1.3126203149249587,1,0.5435308817283686,0.001,0.24500031769275665,1.0
106,1,106,-1,1,0.45379612531814273,0.8955542280632058,1,0.5435308817283686,0.001,1.2030001878738403,1.0
107,1,107,-1,-1,-0.8641529003184117,0.6813257717335564,1,0.5435308817283686,0.001,0.7609937787055969,0.0
108,1,108,-1,-1,-1.7345119461642395,0.5729994464360425,1,0.5435308817283686,0.001,0.7229942679405212,1.0
109,1,109,1,1,-0.5876270150791623,1.5262135772484549,1,0.5435308817283686,0.001,1.7260246276855469,1.0
110,1,110,1,-1,-0.5220112933770784,1.4841858760045707,1,0.5435308817283686,0.001,0.6919946670532227,1.0
111,1,111,1,-1,-1.0284270410028684,1.4211565350964368,1,0.5435308817283686,0.001,0.6919946670532227,1.0
112,1,112,1,1,0.4152953440201226,1.651038951602275,1,0.5435308817283686,0.001,0.6909946799278259,1.0
113,1,113,1,-1,-0.006936639606144213,1.5482929186821948,1,0.5435308817283686,0.001,0.2720000445842743,1.0
114,1,114,1,-1,-1.6771660939478414,1.3404134003890547,1,0.5435308817283686,0.001,1.48201322555542,1.0
115,1,115,-1,-1,-0.9706377175258727,0.6680724953953393,1,0.5435308817283686,0.001,1.1399972438812256,1.0
116,1,116,1,-1,-0.6333499869500556,1.470328478191849,1,0.5435308817283686,0.001,0.7299941778182983,1.0
117,1,117,1,-1,0.6118594297036508,1.625309300159259,1,0.5435308817283686,0.001,0.2829999029636383,1.0
118,1,118,1,-1,-1.1765408196263065,1.402722049419765,1,0.5435308817283686,0.001,0.2650001347064972,1.0
119,1,119,1,1,0.7656152671260789,1.694640348209461,1,0.5435308817283686,0.001,0.1350000947713852,1.0
120,1,120,1,-1,-0.045036527538803606,1.5435509436620107,1,0.5435308817283686,0.001,0.4259980618953705,1.0
121,1,121,1,-1,-0.7406393192426863,1.4569750705765012,1,0.5435308817283686,0.001,0.4859972894191742,1.0
122,1,122,1,-1,0.6572901167782714,1.6309636785563402,1,0.5435308817283686,0.001,0.5149969458580017,1.0
123,1,123,-1,-1,-1.5286531130122585,0.5986209770351951,1,0.5435308817283686,0.001,0.35499897599220276,1.0
124,1,124,1,1,0.5936804451748338,1.6732410561109217,1,0.5435308817283686,0.001,1.0219917297363281,1.0
125,1,125,1,1,0.7277645110102476,1.6899293805469422,1,0.5435308817283686,0.001,0.3599989116191864,1.0
126,1,126,-1,1,1.3549300895811647,1.0077108505689547,1,0.5435308817283686,0.001,0.1660001575946808,1.0
127,1,127,-1,-1,-2.676051693856092,0.4558138533456785,1,0.5435308817283686,0.001,0.4169981777667999,1.0
128,1,128,-1,-1,1.43778343600667,0.9678285725869513,1,0.5435308817283686,0.001,2.7539827823638916,1.0
129,1,129,-1,1,0.10644469804842027,0.8523222953538618,1,0.5435308817283686,0.001,0.27400001883506775,1.0
130,1,130,1,1,-1.0118408391617049,1.4734152236004963,1,0.5435308817283686,0.001,0.5039970874786377,1.0
131,1,131,1,-1,-0.8065315796871839,1.4487740109407476,1,0.5435308817283686,0.001,0.4759974181652069,1.0
132,1,132,-1,-1,-0.5521250675407287,0.7201612714927453,1,0.5435308817283686,0.001,0.7589938044548035,1.0
133,1,133,-1,-1,-0.16259305579304079,0.7686430694585121,1,0.5435308817283686,0.001,0.2959997355937958,1.0
134,1,134,1,1,2.336616699404822,1.8901697828814508,1,0.5435308817283686,0.001,0.5939959287643433,1.0
135,1,135,1,1,0.5325737689060397,1.6656356181908616,1,0.5435308817283686,0.001,0.3879985511302948,1.0
136,1,136,-1,1,0.6036157593350295,0.9142010273214313,1,0.5435308817283686,0.001,1.5070143938064575,1.0
137,1,137,1,1,1.4294882653375498,1.7772670787567417,1,0.5435308817283686,0.001,0.46699753403663635,1.0
138,1,138,-1,-1,-0.7197691196946754,0.6992960156945782,1,0.5435308817283686,0.001,0.8429927229881287,0.0
139,1,139,-1,-1,0.25887193065156056,0.8210992982310197,1,0.5435308817283686,0.001,0.5889959931373596,1.0
140,1,140,-1,-1,-2.2514054304710065,0.5086660291039286,1,0.5435308817283686,0.001,0.8279929161071777,1.0
141,1,141,-1,-1,-1.9183128714137596,0.5501232795097665,1,0.5435308817283686,0.001,1.3200056552886963,0.0
142,1,142,1,-1,-0.988227597041802,1.4261598243298745,1,0.5435308817283686,0.001,0.44599780440330505,0.0
143,1,143,-1,-1,-0.6990610476436,0.7018733765665034,1,0.5435308817283686,0.001,0.6139956712722778,1.0
144,1,144,-1,1,-0.9991051294519064,0.7147237366693525,1,0.5435308817283686,0.001,0.6289954781532288,1.0
145,1,145,1,-1,0.1235096302049058,1.564528477012799,1,0.5435308817283686,0.001,0.15100012719631195,1.0
146,1,146,1,-1,-0.9860243990946254,1.4264340379876286,1,0.5435308817283686,0.001,0.5049970746040344,1.0
147,1,147,1,-1,-0.4207926499882617,1.4967837156458585,1,0.5435308817283686,0.001,0.13400009274482727,1.0
148,1,148,1,1,1.344053422096893,1.7666337169679462,1,0.5435308817283686,0.001,0.19900022447109222,1.0
149,1,149,1,1,2.799461179398797,1.9477761718094373,1,0.5435308817283686,0.001,0.23100028932094574,1.0
150,1,150,-1,-1,0.28727825451743716,0.8246347962467967,1,0.5435308817283686,0.001,0.18300019204616547,1.0
151,1,151,1,-1,-0.1667749790007001,1.528399174794645,1,0.5435308817283686,0.001,0.401998370885849,1.0
152,1,152,1,1,-0.42954978343403183,1.54588813075491,1,0.5435308817283686,0.001,0.1040000319480896,1.0
153,1,153,1,1,2.203350590311001,1.8735832626933349,1,0.5435308817283686,0.001,0.859992504119873,1.0
154,1,154,-1,-1,-0.31941958450485014,0.7491241805061881,1,0.5435308817283686,0.001,0.46999749541282654,1.0
155,1,155,-1,1,1.4107758932933496,1.01466151159592,1,0.5435308817283686,0.001,0.1930002123117447,1.0
156,1,156,-1,1,0.8630314957780986,0.9464883386182495,1,0.5435308817283686,0.001,0.583996057510376,0.0
157,1,157,1,1,1.2716468956511424,1.7576218810194808,1,0.5435308817283686,0.001,0.3779986798763275,1.0
158,1,158,-1,-1,-3.5375535964655835,0.34858990273365276,1,0.5435308817283686,0.001,1.365007758140564,1.0
159,1,159,-1,1,1.3886825103003724,1.0119117326346478,1,0.5435308817283686,0.001,0.07499997317790985,1.0
160,1,160,1,-1,-0.21411864430262345,1.5225067039657945,1,0.5435308817283686,0.001,0.46399757266044617,1.0
161,1,161,1,1,1.8429701939354028,1.8287297229559594,1,0.5435308817283686,0.001,0.3989984095096588,1.0
162,1,162,1,1,-2.4061418172466227,1.2998782194921676,1,0.5435308817283686,0.001,0.3559989631175995,1.0
163,1,163,-1,1,0.6387654800290455,0.9185758196513213,1,0.5435308817283686,0.001,0.20400023460388184,1.0
164,1,164,-1,-1,-1.076290616285074,0.6549227610021129,1,0.5435308817283686,0.001,0.4549976885318756,1.0
165,1,165,1,-1,0.07720949911792074,1.5587658861769997,1,0.5435308817283686,0.001,0.5079970359802246,1.0
166,1,166,1,1,-0.15598771900908748,1.5799361174121374,1,0.5435308817283686,0.001,1.4290107488632202,1.0
167,1,167,1,1,1.5382641924195064,1.79080551041648,1,0.5435308817283686,0.001,0.20900024473667145,1.0
168,1,168,-1,1,-2.1733014273218543,0.5685813248298972,1,0.5435308817283686,0.001,0.7769935727119446,1.0
169,1,169,1,-1,-0.2893653271552472,1.5131413774569733,1,0.5435308817283686,0.001,0.5159969329833984,1.0
170,1,170,1,1,-0.5783145088231743,1.5273726271679522,1,0.5435308817283686,0.001,0.13400009274482727,1.0
171,1,171,-1,1,0.030982493328179594,0.842930144637202,1,0.5435308817283686,0.001,0.9289916157722473,1.0
172,1,172,-1,1,1.674730584604706,1.0475137487172237,1,0.5435308817283686,0.001,0.493997186422348,1.0
173,1,173,1,-1,-1.0331413032274677,1.4205697902286523,1,0.5435308817283686,0.001,0.2819999158382416,1.0
174,1,174,1,-1,-2.85767449225592,1.1934853740969948,1,0.5435308817283686,0.001,0.8869921565055847,1.0
175,1,175,-1,1,0.47567961091922506,0.8982778828481832,1,0.5435308817283686,0.001,0.7869934439659119,1.0
176,1,176,1,-1,1.4911687869970702,1.7347495960118136,1,0.5435308817283686,0.001,0.37599870562553406,1.0
177,1,177,-1,1,-0.09761632366685635,0.8269245233373834,1,0.5435308817283686,0.001,0.3499990403652191,1.0
178,1,178,-1,1,2.2218730516220004,1.1156120044303017,1,0.5435308817283686,0.001,1.2030001878738403,0.0
179,1,179,1,1,-0.24424503367192973,1.5689514661654085,1,0.5435308817283686,0.001,0.8889921307563782,1.0
180,1,180,-1,-1,-1.059389328399112,0.6570263232253359,1,0.5435308817283686,0.001,0.6859947443008423,0.0
181,1,181,-1,-1,0.9768203941389628,0.9104563505576326,1,0.5435308817283686,0.001,1.7140240669250488,1.0
182,1,182,1,-1,-1.576876781246502,1.3528955739970645,1,0.5435308817283686,0.001,1.514014720916748,1.0
183,1,183,1,1,1.3189065249734189,1.7635038925914175,1,0.5435308817283686,0.001,1.1159961223602295,1.0
184,1,184,-1,-1,-1.1853574029434255,0.64134812847879,1,0.5435308817283686,0.001,0.8239929676055908,0.0
185,1,185,1,-1,-1.0651217469427259,1.416589451349436,1,0.5435308817283686,0.001,0.20000022649765015,1.0
186,1,186,1,-1,0.44215136270610067,1.604187153662438,1,0.5435308817283686,0.001,0.10600003600120544,1.0
187,1,187,1,1,1.1687495076314482,1.7448151020469551,1,0.5435308817283686,0.001,1.3480069637298584,1.0
188,1,188,1,-1,-0.8282067294142031,1.4460762859829752,1,0.5435308817283686,0.001,0.8939920663833618,1.0
189,1,189,1,-1,-0.7027997450320767,1.4616846465206157,1,0.5435308817283686,0.001,0.27799996733665466,1.0
190,1,190,1,-1,-1.583837926617646,1.3520291783394138,1,0.5435308817283686,0.001,1.3760082721710205,1.0
191,1,191,1,-1,-1.3547794220601168,1.3805381783840416,1,0.5435308817283686,0.001,0.21900026500225067,1.0
192,1,192,1,-1,-0.5072248749112783,1.4860262180844934,1,0.5435308817283686,0.001,0.49099722504615784,1.0
193,1,193,-1,-1,-1.4964911173376554,0.6026239121713245,1,0.5435308817283686,0.001,1.883031964302063,0.0
194,1,194,-1,-1,-0.5414428087459247,0.721490803077028,1,0.5435308817283686,0.001,1.508014440536499,0.0
195,1,195,1,-1,0.8179947793317492,1.6509652464560307,1,0.5435308817283686,0.001,0.7329941391944885,1.0
196,1,196,-1,-1,0.15155926441792988,0.8077429864348107,1,0.5435308817283686,0.001,0.6039958000183105,1.0
197,1,197,-1,-1,-1.1265324272393187,0.6486695821755787,1,0.5435308817283686,0.001,1.9510351419448853,1.0
198,1,198,1,-1,-2.6651453906182896,1.217447864281684,1,0.5435308817283686,0.001,2.5589969158172607,1.0
199,1,199,-1,1,0.3263547736789016,0.8796926668145247,1,0.5435308817283686,0.001,0.9739910364151001,1.0
200,1,200,-1,1,-0.6132183788619265,0.7627518394068696,1,0.5435308817283686,0.001,0.9809909462928772,1.0
201,1,201,1,-1,-2.3092443643958758,1.2617438942066919,1,0.5435308817283686,0.001,0.41099825501441956,1.0
202,1,202,-1,-1,-0.9039071767080669,0.6763778887917895,1,0.5435308817283686,0.001,0.14500011503696442,1.0
203,1,203,-1,-1,-1.223219487650049,0.6366357508411383,1,0.5435308817283686,0.001,0.4899972379207611,1.0
204,1,204,-1,1,2.703356246686144,1.1755381986403215,1,0.5435308817283686,0.001,0.26000019907951355,1.0
205,1,205,-1,-1,-1.442525194158499,0.6093406001602507,1,0.5435308817283686,0.001,0.91899174451828,1.0
206,1,206,-1,-1,-1.6030614094818039,0.5893599974812219,1,0.5435308817283686,0.001,1.3230057954788208,1.0
207,1,207,-1,-1,0.12985399675006037,0.8050415129483437,1,0.5435308817283686,0.001,0.977990984916687,1.0
208,1,208,-1,1,1.120117054596348,0.9784856321567739,1,0.5435308817283686,0.001,0.2540002763271332,1.0
209,1,209,-1,1,0.36297089587230486,0.8842499698985656,1,0.5435308817283686,0.001,1.9720361232757568,1.0
210,1,210,1,1,1.3409646782634304,1.766249286805634,1,0.5435308817283686,0.001,0.6799948215484619,1.0
211,1,211,-1,1,1.67977616174612,1.0481417295871225,1,0.5435308817283686,0.001,0.3879985511302948,1.0
212,1,212,-1,-1,-1.1553210054088319,0.6450865081574153,1,0.5435308817283686,0.001,0.36499884724617004,1.0
213,1,213,-1,-1,-0.13427601163046432,0.7721674555748629,1,0.5435308817283686,0.001,3.94089674949646,1.0
214,1,214,1,1,-1.352468650989147,1.4310201231812885,1,0.5435308817283686,0.001,0.546996533870697,1.0
215,1,215,1,1,0.35557146381057864,1.6436056187651107,1,0.5435308817283686,0.001,0.5599963665008545,1.0
216,1,216,1,1,1.751258530632657,1.8173151377684698,1,0.5435308817283686,0.001,0.1710001677274704,1.0
217,1,217,-1,-1,-0.08427008719381579,0.778391275575565,1,0.5435308817283686,0.001,0.86399245262146,1.0
218,1,218,-1,1,0.69640582861221,0.9257498326987919,1,0.5435308817283686,0.001,1.514014720916748,1.0
219,1,219,1,-1,-0.23738556447927778,1.5196108646271245,1,0.5435308817283686,0.001,0.23300029337406158,1.0
220,1,220,1,1,-1.7176634473006707,1.3855673752710782,1,0.5435308817283686,0.001,0.13000008463859558,1.0
221,1,221,-1,-1,0.09020574770046663,0.8001068263445533,1,0.5435308817283686,0.001,0.33399924635887146,1.0
222,1,222,-1,-1,-0.037405348180816755,0.7842241384469696,1,0.5435308817283686,0.001,1.1459975242614746,1.0
223,1,223,-1,-1,1.5176873278290532,0.9777735430211668,1,0.5435308817283686,0.001,0.5159969329833984,1.0
224,1,224,1,1,0.2877605336097051,1.6351657583204728,1,0.5435308817283686,0.001,0.39699843525886536,1.0
225,1,225,-1,1,2.746446118321174,1.180901235279101,1,0.5435308817283686,0.001,0.4929971992969513,1.0
226,1,226,1,-1,0.45016845467990363,1.6051849741794295,1,0.5435308817283686,0.001,0.21400025486946106,1.0
227,1,227,1,-1,0.24924557588831664,1.5801777806176753,1,0.5435308817283686,0.001,1.8130286931991577,1.0
228,1,228,1,-1,-2.2401856774698343,1.2703390525155247,1,0.5435308817283686,0.001,0.5209968686103821,1.0
229,1,229,1,1,1.2415326836042015,1.7538738164180439,1,0.5435308817283686,0.001,0.5439965724945068,1.0
230,1,230,-1,1,0.18928097193496868,0.8626322349061621,1,0.5435308817283686,0.001,1.5380158424377441,1.0
231,1,231,-1,1,0.32277537723908517,0.879247169217919,1,0.5435308817283686,0.001,2.109029531478882,1.0
232,1,232,-1,1,-0.7738662243391303,0.7427573430543943,1,0.5435308817283686,0.001,0.8839921951293945,1.0
233,1,233,-1,1,1.482066328071109,1.0235344369308108,1,0.5435308817283686,0.001,0.42899802327156067,1.0
234,1,234,-1,-1,-0.6136236725159527,0.7125070534781381,1,0.5435308817283686,0.001,0.3629988729953766,1.0
235,1,235,1,-1,-2.359401039383566,1.25550131154326,1,0.5435308817283686,0.001,0.2859998643398285,1.0
236,1,236,1,-1,-1.3653414914732234,1.3792236057688432,1,0.5435308817283686,0.001,0.3529990017414093,1.0
237,1,237,1,-1,0.7383469505399289,1.6410521460497969,1,0.5435308817283686,0.001,0.3559989631175995,1.0
238,1,238,1,-1,-1.0158092077435101,1.4227269714775221,1,0.5435308817283686,0.001,0.3709987699985504,1.0
239,1,239,-1,-1,-0.7560352404815609,0.6947822743640435,1,0.5435308817283686,0.001,0.8959920406341553,1.0
240,1,240,1,-1,-1.4641034479746127,1.3669315294377569,1,0.5435308817283686,0.001,0.17400017380714417,1.0
241,1,241,-1,1,0.10538213126611362,0.8521900465360207,1,0.5435308817283686,0.001,0.5699962377548218,1.0
242,1,242,-1,-1,-0.9961022953309765,0.6649031319561407,1,0.5435308817283686,0.001,0.8359928131103516,1.0
243,1,243,1,-1,-1.1490834608494764,1.4061394376721947,1,0.5435308817283686,0.001,0.37899866700172424,1.0
244,1,244,-1,-1,0.023033114793199028,0.7917464094359985,1,0.5435308817283686,0.001,0.45999762415885925,1.0
245,1,245,1,-1,-1.966315757907237,1.3044253553319798,1,0.5435308817283686,0.001,0.21900026500225067,1.0
246,1,246,-1,1,-1.5132427385279636,0.6507333201231167,1,0.5435308817283686,0.001,0.4199981391429901,1.0
247,1,247,1,1,1.0593717988243745,1.731201771639138,1,0.5435308817283686,0.001,0.6519951820373535,1.0
248,1,248,-1,1,-0.8367732654020701,0.7349278287565729,1,0.5435308817283686,0.001,0.14100010693073273,1.0
249,1,249,-1,-1,-0.9685092815753853,0.6683374040514254,1,0.5435308817283686,0.001,0.9149917960166931,1.0
250,1,250,-1,-1,0.12829554001182797,0.8048475448470255,1,0.5435308817283686,0.001,5.270800590515137,1.0
251,1,251,1,-1,-0.3511525477969172,1.5054512378595222,1,0.5435308817283686,0.001,0.17600017786026,1.0
252,1,252,1,1,0.9936605986246381,1.7230232470606877,1,0.5435308817283686,0.001,0.2999996840953827,1.0
253,1,253,1,1,-1.8688378552734854,1.366751958607249,1,0.5435308817283686,0.001,0.11000004410743713,1.0
254,1,254,-1,1,0.13643340918031133,0.856054739903995,1,0.5435308817283686,0.001,3.340940237045288,1.0
255,1,255,-1,-1,-0.8848135385485051,0.678754314553385,1,0.5435308817283686,0.001,0.8569925427436829,0.0
256,1,256,-1,-1,-0.845476102166865,0.6836503168988385,1,0.5435308817283686,0.001,0.4519977271556854,1.0
257,1,257,1,1,0.7422784777853682,1.691735812839159,1,0.5435308817283686,0.001,0.20800024271011353,1.0
258,1,258,-1,-1,-1.3477364913839431,0.6211381587658571,1,0.5435308817283686,0.001,0.21700026094913483,1.0
259,1,259,1,1,-0.24241525811400966,1.5691792030554366,1,0.5435308817283686,0.001,0.14300011098384857,1.0
260,1,260,-1,-1,1.4075839739412004,0.9640698976273145,1,0.5435308817283686,0.001,0.933991551399231,1.0
261,1,261,-1,-1,-0.9098035190328637,0.6756440202810984,1,0.5435308817283686,0.001,1.393009066581726,0.0
262,1,262,-1,1,1.052444472545349,0.9700629907515189,1,0.5435308817283686,0.001,0.4259980618953705,1.0
263,1,263,1,-1,-0.30884025109572716,1.5107174962369296,1,0.5435308817283686,0.001,0.2340002954006195,1.0
264,1,264,1,1,2.8704170140541025,1.9566074522600903,1,0.5435308817283686,0.001,0.20900024473667145,1.0
265,1,265,1,-1,-1.5456242556121018,1.3567853149888995,1,0.5435308817283686,0.001,0.4679975211620331,1.0
266,1,266,-1,-1,-2.7683391419398897,0.44432760503273366,1,0.5435308817283686,0.001,0.21700026094913483,1.0
267,1,267,1,-1,-1.332329325708327,1.3833323544794955,1,0.5435308817283686,0.001,0.19000020623207092,1.0
268,1,268,-1,1,0.18914762664462914,0.8626156385309453,1,0.5435308817283686,0.001,1.1619982719421387,1.0
269,1,269,1,1,0.4079513446240714,1.6501249052999374,1,0.5435308817283686,0.001,0.21200025081634521,1.0
270,1,270,1,1,-0.3458389541952632,1.5563069189117342,1,0.5435308817283686,0.001,0.9569912552833557,1.0
271,1,271,-1,1,2.418259095116297,1.14005453597288,1,0.5435308817283686,0.001,0.2580002248287201,1.0
272,1,272,-1,-1,-0.21653735284995362,0.7619290730925021,1,0.5435308817283686,0.001,0.3499990403652191,1.0
273,1,273,1,1,-0.005990639303845469,1.5986050018540017,1,0.5435308817283686,0.001,1.9140334129333496,1.0
274,1,274,-1,-1,0.4439054533331044,0.8441288762708121,1,0.5435308817283686,0.001,0.37899866700172424,1.0
275,1,275,1,-1,-0.9174456375877305,1.4349694639856165,1,0.5435308817283686,0.001,0.09300000965595245,1.0
276,1,276,-1,1,1.0040056635932442,0.9640342165340113,1,0.5435308817283686,0.001,1.0899949073791504,1.0
277,1,277,1,-1,-1.5648712478031104,1.3543898025311003,1,0.5435308817283686,0.001,0.1580001413822174,1.0
278,1,278,-1,1,0.6698125021941344,0.922439983341728,1,0.5435308817283686,0.001,1.2980046272277832,0.0
279,1,279,1,1,-0.05550127213640765,1.5924428266649178,1,0.5435308817283686,0.001,0.1710001677274704,1.0
280,1,280,1,-1,-0.5252147600530617,1.4837871672476748,1,0.5435308817283686,0.001,0.18300019204616547,1.0
281,1,281,-1,-1,-1.431554713830319,0.6107060042729241,1,0.5435308817283686,0.001,0.5159969329833984,1.0
282,1,282,-1,1,0.6095221143334705,0.9149361420260322,1,0.5435308817283686,0.001,1.0779943466186523,1.0
283,1,283,-1,1,-0.6967044257984443,0.7523610280268834,1,0.5435308817283686,0.001,1.5950185060501099,0.0
284,1,284,-1,1,0.7686680834219395,0.9347437123609987,1,0.5435308817283686,0.001,0.2789999544620514,1.0
285,1,285,-1,1,1.3174034569231132,1.0030402238476734,1,0.5435308817283686,0.001,1.1579980850219727,1.0
286,1,286,-1,1,0.9427340314914902,0.9564082479383567,1,0.5435308817283686,0.001,0.9729910492897034,1.0
287,1,287,1,1,-0.7233976723638733,1.5093153368532075,1,0.5435308817283686,0.001,0.638995349407196,1.0
288,1,288,1,1,1.0482497735664698,1.729817505994051,1,0.5435308817283686,0.001,0.1930002123117447,1.0
289,1,289,-1,1,2.1709886905735054,1.1092788527570878,1,0.5435308817283686,0.001,0.4199981391429901,0.0
290,1,290,1,1,-0.6091178150913492,1.5235387967608671,1,0.5435308817283686,0.001,0.19200021028518677,1.0
291,1,291,-1,-1,0.648617018849345,0.8696076160439192,1,0.5435308817283686,0.001,1.3210057020187378,1.0
292,1,292,1,1,2.380901054670093,1.8956814869269858,1,0.5435308817283686,0.001,0.35399898886680603,1.0
293,1,293,1,-1,0.627835840137237,1.6272977506062043,1,0.5435308817283686,0.001,0.7559938430786133,1.0
294,1,294,-1,-1,0.3614827279990891,0.8338704076548362,1,0.5435308817283686,0.001,0.3639988601207733,0.0
295,1,295,1,1,0.6500357663249638,1.6802551325202986,1,0.5435308817283686,0.001,0.6709949374198914,1.0
296,1,296,-1,1,-0.1199197218262964,0.8241486055413989,1,0.5435308817283686,0.001,0.5769961476325989,1.0
297,1,297,1,-1,0.114727057032179,1.5634353834406705,1,0.5435308817283686,0.001,0.9389914870262146,1.0
298,1,298,-1,1,0.22831286739362805,0.8674902091233707,1,0.5435308817283686,0.001,0.7529938817024231,0.0
299,1,299,-1,1,-0.3387430446198899,0.796913493134903,1,0.5435308817283686,0.001,0.4799973666667938,1.0
300,1,300,1,1,-0.35969201451870203,1.5545827441287807,1,0.5435308817283686,0.001,0.8289929032325745,1.0
301,1,301,-1,1,1.7237051290563694,1.0536092014604221,1,0.5435308817283686,0.001,0.2340002954006195,1.0
302,1,302,-1,1,-0.15685611434561286,0.8195514410832807,1,0.5435308817283686,0.001,0.20000022649765015,1.0
303,1,303,-1,-1,-0.7785087782751542,0.6919851807080007,1,0.5435308817283686,0.001,0.6439952850341797,1.0
304,1,304,1,-1,0.5436542174485577,1.6168203667185188,1,0.5435308817283686,0.001,0.4329979717731476,1.0
305,1,305,-1,1,-0.9706638162840235,0.7182635895114844,1,0.5435308817283686,0.001,0.6809948086738586,1.0
306,1,306,1,1,1.5316057106046397,1.7899767847652588,1,0.5435308817283686,0.001,0.27799996733665466,1.0
307,1,307,1,1,-0.9779073690977487,1.4776386393668588,1,0.5435308817283686,0.001,1.2450021505355835,1.0
308,1,308,-1,1,-0.30197373451545295,0.8014898622395265,1,0.5435308817283686,0.001,1.4380111694335938,1.0
309,1,309,1,-1,0.35077399509664775,1.5928141754694296,1,0.5435308817283686,0.001,0.09300000965595245,1.0
310,1,310,-1,1,0.16135940689207368,0.8591570707746594,1,0.5435308817283686,0.001,0.5659962892532349,1.0
311,1,311,-1,1,1.257189098100203,0.9955458452316704,1,0.5435308817283686,0.001,0.34399911761283875,1.0
312,1,312,-1,1,-1.7287578079911827,0.6239099583937041,1,0.5435308817283686,0.001,0.3419991433620453,1.0
313,1,313,1,1,-1.334580031274752,1.4332465703556518,1,0.5435308817283686,0.001,0.7639937400817871,1.0
314,1,314,-1,-1,-1.6558933324760532,0.5827844490294833,1,0.5435308817283686,0.001,0.5879960060119629,1.0
315,1,315,-1,1,0.4370418105805251,0.89346895836093,1,0.5435308817283686,0.001,2.1640255451202393,1.0
316,1,316,-1,1,-0.28083704251271047,0.8041205698590208,1,0.5435308817283686,0.001,4.4218621253967285,1.0
317,1,317,-1,1,0.5348526157895499,0.9056426528301909,1,0.5435308817283686,0.001,0.5459965467453003,1.0
318,1,318,1,-1,0.06756941304750874,1.5575660651324046,1,0.5435308817283686,0.001,0.5309967398643494,1.0
319,1,319,-1,1,-0.0092942307284265,0.8379172369953516,1,0.5435308817283686,0.001,0.423998087644577,0.0
320,1,320,-1,1,1.5485452014057124,1.031808507376368,1,0.5435308817283686,0.001,0.22700028121471405,1.0
321,1,321,1,1,0.6998690888314258,1.6864574701995085,1,0.5435308817283686,0.001,0.7539938688278198,1.0
322,1,322,-1,1,0.9920825012610381,0.9625502400446093,1,0.5435308817283686,0.001,0.2999996840953827,1.0
323,1,323,1,1,0.04308191378408999,1.6047126529140505,1,0.5435308817283686,0.001,1.0089911222457886,1.0
324,1,324,1,1,-0.4252632167833508,1.5464216439247074,1,0.5435308817283686,0.001,0.3029996454715729,1.0
325,1,325,1,-1,-0.0779391821751505,1.539455824887408,1,0.5435308817283686,0.001,0.8509926199913025,1.0
326,1,326,-1,1,-0.4884823070965161,0.7782766970514093,1,0.5435308817283686,0.001,0.5649963021278381,1.0
327,1,327,-1,-1,-0.982006814081828,0.6666574788481597,1,0.5435308817283686,0.001,0.18600019812583923,1.0
328,1,328,-1,1,-0.8990078164557969,0.7271820136767295,1,0.5435308817283686,0.001,0.7769935727119446,1.0
329,1,329,-1,1,0.16113364897951366,0.8591289725717497,1,0.5435308817283686,0.001,0.616995632648468,1.0
330,1,330,-1,-1,-1.300102081334667,0.6270668161664802,1,0.5435308817283686,0.001,0.17400017380714417,1.0
331,1,331,-1,-1,-0.9252293722452005,0.6737240930958212,1,0.5435308817283686,0.001,0.17300017178058624,1.0
332,1,332,-1,-1,0.476152267801377,0.8481423680941825,1,0.5435308817283686,0.001,0.7419940233230591,1.0
333,1,333,1,-1,-0.27896868643007616,1.5144353605442655,1,0.5435308817283686,0.001,0.3699987828731537,1.0
334,1,334,1,1,0.9734600409326593,1.72050905226467,1,0.5435308817283686,0.001,0.3459990918636322,1.0
335,1,335,1,1,1.350553111718102,1.7674426790803073,1,0.5435308817283686,0.001,0.3629988729953766,1.0
336,1,336,1,-1,-1.0069933224842444,1.4238242111269965,1,0.5435308817283686,0.001,0.3039996325969696,1.0
337,1,337,-1,-1,-1.3992044626448403,0.614732370001069,1,0.5435308817283686,0.001,0.3419991433620453,1.0
338,1,338,-1,-1,0.609022713001601,0.8646796433001837,1,0.5435308817283686,0.001,2.9919655323028564,0.0
339,1,339,1,1,1.937182210164693,1.8404555062010461,1,0.5435308817283686,0.001,0.10500003397464752,1.0
340,1,340,-1,1,0.8529126574510479,0.9452289312765544,1,0.5435308817283686,0.001,0.06999996304512024,1.0
341,1,341,1,1,-0.47347441634317344,1.5404211983483358,1,0.5435308817283686,0.001,0.5989958643913269,1.0
342,1,342,-1,1,0.6484140187578052,0.9197766927277441,1,0.5435308817283686,0.001,1.1519978046417236,1.0
343,1,343,-1,-1,-0.5615734205938625,0.7189853138563599,1,0.5435308817283686,0.001,0.24000030755996704,1.0
344,1,344,1,1,1.472174571051612,1.78257988691402,1,0.5435308817283686,0.001,0.30199965834617615,1.0
345,1,345,-1,1,0.5559335532181329,0.9082664211432392,1,0.5435308817283686,0.001,0.6009958386421204,1.0
346,1,346,-1,1,1.1399131987867712,0.9809494929800094,1,0.5435308817283686,0.001,0.40099838376045227,1.0
347,1,347,-1,-1,-1.5127950055282882,0.600594703301511,1,0.5435308817283686,0.001,0.8629924654960632,1.0
348,1,348,1,1,1.1346054341084186,1.7405654742260097,1,0.5435308817283686,0.001,0.26300016045570374,1.0
349,1,349,1,-1,0.168290511331724,1.5701019794876758,1,0.5435308817283686,0.001,0.7109944224357605,1.0
350,1,350,1,-1,-0.2941276161802383,1.5125486550942377,1,0.5435308817283686,0.001,0.27699998021125793,1.0
351,1,351,1,-1,-1.6409173056018544,1.3449249844953497,1,0.5435308817283686,0.001,0.19100020825862885,1.0
352,1,352,-1,-1,-0.2794831356913838,0.7540947369289008,1,0.5435308817283686,0.001,0.524996817111969,1.0
353,1,353,1,1,1.517018265605096,1.7881612072517918,1,0.5435308817283686,0.001,0.2250002771615982,1.0
354,1,354,-1,-1,-2.0690068857468384,0.5313676534322902,1,0.5435308817283686,0.001,0.14600011706352234,1.0
355,1,355,1,1,0.2877110996180301,1.635159605684169,1,0.5435308817283686,0.001,0.3359992206096649,1.0
356,1,356,-1,-1,0.07982868819853428,0.7988152803686676,1,0.5435308817283686,0.001,0.789993405342102,1.0
357,1,357,1,1,2.0999130510773085,1.8607092556080014,1,0.5435308817283686,0.001,0.09100000560283661,1.0
358,1,358,1,1,0.9627419177493379,1.719175056939319,1,0.5435308817283686,0.001,1.0239918231964111,1.0
359,1,359,-1,1,0.01859890475997228,0.8413888627375159,1,0.5435308817283686,0.001,1.0129913091659546,0.0
360,1,360,-1,-1,-1.381520813216519,0.616933306234871,1,0.5435308817283686,0.001,0.7819935083389282,1.0
361,1,361,-1,-1,-0.4281573380529928,0.7355904999875582,1,0.5435308817283686,0.001,1.0249918699264526,1.0
362,1,362,1,1,1.3989452009387233,1.7734656384828202,1,0.5435308817283686,0.001,0.36899879574775696,1.0
363,1,363,1,1,1.7890049099093315,1.8220131145170824,1,0.5435308817283686,0.001,0.19500021636486053,1.0
364,1,364,1,1,1.6355337861765786,1.802911844813965,1,0.5435308817283686,0.001,0.4259980618953705,1.0
365,1,365,-1,-1,-1.0265576088165038,0.6611126133059153,1,0.5435308817283686,0.001,1.4680125713348389,1.0
366,1,366,-1,1,-0.1800139900550657,0.8166691735992176,1,0.5435308817283686,0.001,0.273000031709671,1.0
367,1,367,-1,1,1.1858512796320073,0.9866670224443566,1,0.5435308817283686,0.001,0.25700023770332336,1.0
368,1,368,-1,1,1.847678290707798,1.069039106051306,1,0.5435308817283686,0.001,0.22700028121471405,1.0
369,1,369,1,1,1.521929875457365,1.7887725143314746,1,0.5435308817283686,0.001,0.7249942421913147,1.0
370,1,370,-1,1,0.778371379955622,0.935951400684321,1,0.5435308817283686,0.001,0.1940002143383026,0.0
371,1,371,1,1,0.5926997252381079,1.6731189940867508,1,0.5435308817283686,0.001,0.3529990017414093,1.0
372,1,372,1,1,0.3630649557439029,1.644538271155705,1,0.5435308817283686,0.001,0.1530001312494278,1.0
373,1,373,-1,1,-1.203641916488162,0.6892667501147227,1,0.5435308817283686,0.001,2.125028371810913,0.0
374,1,374,1,1,1.812236533439927,1.8249045607768488,1,0.5435308817283686,0.001,0.38699856400489807,1.0
375,1,375,1,1,0.5868446211092211,1.6723902581500774,1,0.5435308817283686,0.001,0.8249929547309875,1.0
376,1,376,-1,1,-1.2527429867618156,0.6831555497586088,1,0.5435308817283686,0.001,0.6839947700500488,1.0
377,1,377,-1,1,1.9798005437656054,1.085483260026717,1,0.5435308817283686,0.001,0.4159981906414032,1.0
378,1,378,1,1,-1.1291062552186693,1.458820176112261,1,0.5435308817283686,0.001,1.605018973350525,1.0
379,1,379,-1,1,1.397603245419803,1.013022022071005,1,0.5435308817283686,0.001,0.1660001575946808,1.0
380,1,380,-1,-1,-0.36480965650311675,0.7434748571286349,1,0.5435308817283686,0.001,0.2540002763271332,1.0
381,1,381,-1,1,1.5844919384772242,1.0362824976818386,1,0.5435308817283686,0.001,1.0669938325881958,1.0
382,1,382,1,1,1.3270500000085361,1.764517442953095,1,0.5435308817283686,0.001,0.583996057510376,1.0
383,1,383,1,1,-0.4977677760305066,1.5373976066517594,1,0.5435308817283686,0.001,0.7479939460754395,1.0
384,1,384,-1,1,0.28601934499460613,0.8746724526976905,1,0.5435308817283686,0.001,0.37499871850013733,1.0
385,1,385,1,1,0.40492783880809063,1.6497485947691006,1,0.5435308817283686,0.001,0.24600031971931458,1.0
386,1,386,-1,-1,-0.602302299861898,0.7139161302296133,1,0.5435308817283686,0.001,1.524015188217163,1.0
387,1,387,-1,-1,-0.22071903482867145,0.7614086140423211,1,0.5435308817283686,0.001,0.7589938044548035,1.0
388,1,388,-1,1,1.1635852255846117,0.9838957525582761,1,0.5435308817283686,0.001,0.48099735379219055,1.0
389,1,389,-1,-1,-0.6308988163597744,0.7103569605245244,1,0.5435308817283686,0.001,0.5859960317611694,1.0
390,1,390,1,-1,1.8064559708067711,1.7739907599872113,1,0.5435308817283686,0.001,0.32699933648109436,1.0
391,1,391,1,1,-0.3466893807083853,1.5562010734224023,1,0.5435308817283686,0.001,0.3359992206096649,1.0
392,1,392,1,-1,-2.278283141331382,1.2655973791992374,1,0.5435308817283686,0.001,0.8539925813674927,1.0
393,1,393,-1,1,0.15714264705622794,0.8586322458764067,1,0.5435308817283686,0.001,1.8150287866592407,1.0
394,1,394,-1,-1,-2.290753396212202,0.5037687162569828,1,0.5435308817283686,0.001,0.7309941649436951,1.0
395,1,395,1,1,0.4964770124422454,1.6611429562238889,1,0.5435308817283686,0.001,0.2580002248287201,1.0
396,1,396,-1,-1,-0.07888372431768176,0.7790616712012272,1,0.5435308817283686,0.001,0.6309954524040222,1.0
397,1,397,1,-1,-1.1112442722960807,1.410848965616775,1,0.5435308817283686,0.001,0.8209930062294006,1.0
398,1,398,1,1,0.5484581513345189,1.667612614680196,1,0.5435308817283686,0.001,0.7549938559532166,1.0
399,1,399,-1,1,1.215260012263343,0.9903272819117741,1,0.5435308817283686,0.001,0.3149994909763336,1.0
400,1,400,-1,1,0.4829475056503348,0.8991824570381431,1,0.5435308817283686,0.001,1.2800037860870361,1.0
401,1,401,-1,1,-0.5721676693049036,0.7678610785632758,1,0.5435308817283686,0.001,0.4409978687763214,1.0
402,1,402,1,1,-0.28887216065118304,1.5633971001858489,1,0.5435308817283686,0.001,0.31599947810173035,1.0
403,1,403,-1,-1,0.44763046827425956,0.8445924977867597,1,0.5435308817283686,0.001,0.686994731426239,1.0
404,1,404,-1,1,2.0419581521850407,1.0932194986991326,1,0.5435308817283686,0.001,0.33699920773506165,1.0
405,1,405,-1,-1,-0.23895248563075788,0.7591392486208777,1,0.5435308817283686,0.001,0.5849960446357727,1.0
406,1,406,-1,1,1.2361505784478677,0.9929273563051583,1,0.5435308817283686,0.001,0.22800028324127197,0.0
407,1,407,1,1,0.08942165221885223,1.6104801733458136,1,0.5435308817283686,0.001,0.38699856400489807,1.0
408,1,408,-1,1,0.03162372800396407,0.8430099537647253,1,0.5435308817283686,0.001,0.38999852538108826,0.0
409,1,409,-1,-1,0.1895101262239941,0.8124664134169817,1,0.5435308817283686,0.001,0.2789999544620514,1.0
410,1,410,-1,-1,-2.1724186480190095,0.5184968545901896,1,0.5435308817283686,0.001,0.24100030958652496,1.0
411,1,411,1,1,0.9242693974200715,1.7143867034751998,1,0.5435308817283686,0.001,0.15500013530254364,1.0
412,1,412,1,-1,0.3238403256944876,1.5894619664620782,1,0.5435308817283686,0.001,0.14600011706352234,1.0
413,1,413,1,1,0.476463139620554,1.6586519965353632,1,0.5435308817283686,0.001,0.1440001130104065,1.0
414,1,414,-1,-1,-1.0763744404127102,0.6549123281126503,1,0.5435308817283686,0.001,0.43499794602394104,1.0
415,1,415,1,-1,0.6166103292545315,1.625900604969223,1,0.5435308817283686,0.001,0.5989958643913269,1.0
416,1,416,-1,-1,-0.5627420419457327,0.7188398653115133,1,0.5435308817283686,0.001,0.1620001494884491,0.0
417,1,417,1,1,-0.8770912691144794,1.4901863777906046,1,0.5435308817283686,0.001,0.43899789452552795,0.0
418,1,418,-1,1,-0.08599457559496881,0.8283709853097957,1,0.5435308817283686,0.001,0.8399927616119385,1.0
419,1,419,1,-1,0.20639737576390782,1.5748448228145207,1,0.5435308817283686,0.001,0.2969997227191925,1.0
420,1,420,1,1,-0.4149164113784056,1.5477094244256808,1,0.5435308817283686,0.001,0.4869972765445709,1.0
421,1,421,1,1,-0.2109933458339993,1.5730900261891312,1,0.5435308817283686,0.001,1.4650124311447144,1.0
422,1,422,1,-1,0.38986119083794035,1.59767903245121,1,0.5435308817283686,0.001,0.3989984095096588,1.0
423,1,423,1,1,0.6304941715578342,1.6778229533389823,1,0.5435308817283686,0.001,0.3769986927509308,1.0
424,1,424,-1,1,0.49902560121233785,0.9011835633842276,1,0.5435308817283686,0.001,0.8229929804801941,1.0
425,1,425,1,1,0.7539014464973209,1.6931824267344513,1,0.5435308817283686,0.001,0.29199978709220886,1.0
426,1,426,-1,-1,0.07401212599550921,0.7980913414237856,1,0.5435308817283686,0.001,1.5330156087875366,0.0
427,1,427,1,1,1.9074538033766903,1.836755459559761,1,0.5435308817283686,0.001,0.5479965209960938,1.0
428,1,428,-1,1,0.4883453470744881,0.8998542813028625,1,0.5435308817283686,0.001,0.23300029337406158,1.0
429,1,429,1,1,-0.5344595337800324,1.5328308898413998,1,0.5435308817283686,0.001,0.3779986798763275,1.0
430,1,430,1,-1,-0.7162864743340999,1.4600060659020266,1,0.5435308817283686,0.001,1.36900794506073,0.0
431,1,431,1,-1,-1.5184604679758387,1.360166164891986,1,0.5435308817283686,0.001,0.627995491027832,1.0
432,1,432,1,-1,-0.4672621539189987,1.4910000443860016,1,0.5435308817283686,0.001,0.6719949245452881,1.0
433,1,433,-1,1,-1.3864999655547918,0.6665079351164704,1,0.5435308817283686,0.001,0.3809986412525177,1.0
434,1,434,-1,-1,0.12653183523303946,0.804628031235364,1,0.5435308817283686,0.001,1.1139960289001465,1.0
435,1,435,-1,1,-0.2859572825571757,0.8034832963208122,1,0.5435308817283686,0.001,0.18700020015239716,1.0
436,1,436,-1,1,0.8252161620417852,0.9417817796836285,1,0.5435308817283686,0.001,0.2969997227191925,1.0
437,1,437,1,-1,1.4779196971349187,1.7331005923906602,1,0.5435308817283686,0.001,0.28399989008903503,1.0
438,1,438,1,-1,0.22440910912457235,1.57708659291677,1,0.5435308817283686,0.001,0.3659988343715668,1.0
439,1,439,-1,1,0.13932546174504218,0.8564146895459271,1,0.5435308817283686,0.001,1.126996636390686,1.0
440,1,440,-1,1,0.5211048325716422,0.9039315810097843,1,0.5435308817283686,0.001,0.5079970359802246,1.0
441,1,441,1,-1,-2.7689387254116933,1.2045295742929616,1,0.5435308817283686,0.001,0.3879985511302948,1.0
442,1,442,-1,1,0.40850661084064704,0.8899174202408802,1,0.5435308817283686,0.001,0.47699740529060364,1.0
443,1,443,-1,-1,-2.2388700711389373,0.5102262006437179,1,0.5435308817283686,0.001,0.5569964051246643,1.0
444,1,444,1,1,2.467241031473799,1.906427503134962,1,0.5435308817283686,0.001,0.33299925923347473,1.0
445,1,445,-1,1,0.7049583045840906,0.926814287993019,1,0.5435308817283686,0.001,1.480013132095337,0.0
446,1,446,1,-1,0.005252657745971501,1.5498100187760189,1,0.5435308817283686,0.001,0.4929971992969513,1.0
447,1,447,1,-1,0.3679436301280423,1.5949511366218732,1,0.5435308817283686,0.001,0.23300029337406158,1.0
448,1,448,1,-1,-2.700702419073838,1.2130223777546316,1,0.5435308817283686,0.001,0.5079970359802246,1.0
449,1,449,1,-1,-1.3081146882412753,1.3863461482784305,1,0.5435308817283686,0.001,0.9539912939071655,0.0
450,1,450,-1,1,0.2803862495697379,0.8739713483312354,1,0.5435308817283686,0.001,0.49799713492393494,1.0
451,1,451,1,-1,-1.4546829230535827,1.3681040235388289,1,0.5435308817283686,0.001,0.7819935083389282,1.0
452,1,452,-1,1,0.818526591003285,0.9409491846162524,1,0.5435308817283686,0.001,0.6019958257675171,1.0
453,1,453,-1,1,1.5299526582618868,1.0294944487285962,1,0.5435308817283686,0.001,1.23600172996521,1.0
454,1,454,-1,-1,-0.972594906609858,0.6678289004072795,1,0.5435308817283686,0.001,0.9109918475151062,1.0
455,1,455,-1,1,0.9005586242585628,0.9511590270504078,1,0.5435308817283686,0.001,1.0589934587478638,1.0
456,1,456,1,1,0.4511374932481926,1.6554999247318973,1,0.5435308817283686,0.001,0.42499807476997375,1.0
457,1,457,-1,-1,-0.0921210437248774,0.7774141325503507,1,0.5435308817283686,0.001,1.7980279922485352,1.0
458,1,458,1,-1,0.4615535233797483,1.6066019786460348,1,0.5435308817283686,0.001,0.5449965596199036,1.0
459,1,459,-1,-1,-0.3915006525171031,0.7401528516522445,1,0.5435308817283686,0.001,0.4619975984096527,1.0
460,1,460,1,1,1.212786429637237,1.7502960101400795,1,0.5435308817283686,0.001,0.5449965596199036,1.0
461,1,461,1,-1,-2.1295930459298757,1.2841035942145924,1,0.5435308817283686,0.001,0.9549912810325623,1.0
462,1,462,-1,-1,-1.1559691884816545,0.6450058342209128,1,0.5435308817283686,0.001,0.4439978301525116,1.0
463,1,463,1,-1,0.5860371002946063,1.622095410364174,1,0.5435308817283686,0.001,0.7609937787055969,1.0
464,1,464,-1,1,1.016375245438865,0.9655737551338552,1,0.5435308817283686,0.001,0.8199930191040039,0.0
465,1,465,1,1,-0.73423569056534,1.5079664191957465,1,0.5435308817283686,0.001,0.14800012111663818,1.0
466,1,466,1,1,-0.007841786354393698,1.5983746050326804,1,0.5435308817283686,0.001,0.3989984095096588,0.0
467,1,467,-1,1,0.1731238109219047,0.8606212879433663,1,0.5435308817283686,0.001,1.1929997205734253,1.0
468,1,468,1,-1,-2.3410546187496566,1.2577847373766786,1,0.5435308817283686,0.001,0.42499807476997375,1.0
469,1,469,-1,1,-0.2656255556328694,0.80601381665627,1,0.5435308817283686,0.001,0.48499730229377747,1.0
470,1,470,1,-1,-2.3359518015404244,1.2584198424400193,1,0.5435308817283686,0.001,0.37299874424934387,1.0
471,1,471,-1,-1,-0.08415749478862566,0.7784052890123976,1,0.5435308817283686,0.001,0.4269980490207672,1.0
472,1,472,1,-1,-1.7759519996673354,1.3281183432987018,1,0.5435308817283686,0.001,0.3109995424747467,1.0
473,1,473,1,1,-0.3228740845439382,1.5591651645428195,1,0.5435308817283686,0.001,0.1530001312494278,1.0
474,1,474,1,-1,-1.1121393240284951,1.4107375659988972,1,0.5435308817283686,0.001,0.7989932894706726,1.0
475,1,475,1,-1,-0.6327927567347555,1.4703978319853857,1,0.5435308817283686,0.001,0.859992504119873,1.0
476,1,476,-1,-1,-0.9237001677230522,0.6739144204179801,1,0.5435308817283686,0.001,0.17400017380714417,1.0
477,1,477,-1,1,0.4838164480223417,0.8992906070418734,1,0.5435308817283686,0.001,0.39299848675727844,1.0
478,1,478,-1,1,0.8728319865118138,0.9477081238923418,1,0.5435308817283686,0.001,0.5349966883659363,0.0
479,1,479,1,1,1.142613591662979,1.7415621827504164,1,0.5435308817283686,0.001,0.31199952960014343,1.0
480,1,480,-1,1,0.3106698515989439,0.8777404954898176,1,0.5435308817283686,0.001,0.36199888586997986,0.0
481,1,481,1,-1,-1.7847004723436066,1.3270294939307203,1,0.5435308817283686,0.001,0.2110002487897873,1.0
482,1,482,1,-1,-1.9784726021969037,1.3029122943999436,1,0.5435308817283686,0.001,0.4509977400302887,1.0
483,1,483,1,-1,-2.149788551299129,1.2815900282390111,1,0.5435308817283686,0.001,0.3519990146160126,1.0
484,1,484,-1,1,0.2614548245690906,0.8716151118874897,1,0.5435308817283686,0.001,0.4379979074001312,1.0
485,1,485,-1,-1,0.22148214290807655,0.8164457034539705,1,0.5435308817283686,0.001,0.2540002763271332,1.0
486,1,486,-1,-1,0.5395460518223729,0.8560324632250088,1,0.5435308817283686,0.001,0.789993405342102,1.0
487,1,487,1,1,-0.5604853793950448,1.5295916700829666,1,0.5435308817283686,0.001,0.45999762415885925,1.0
488,1,488,-1,-1,0.988212775162453,0.9118742651281241,1,0.5435308817283686,0.001,0.36199888586997986,1.0
489,1,489,-1,1,1.9316666269000706,1.0794924331822022,1,0.5435308817283686,0.001,0.23500029742717743,1.0
490,1,490,-1,1,1.7205060296819463,1.0532110362650964,1,0.5435308817283686,0.001,0.6549951434135437,1.0
491,1,491,-1,-1,-0.08993420146343356,0.7776863105524272,1,0.5435308817283686,0.001,0.37299874424934387,1.0
492,1,492,1,1,0.04721204299120896,1.6052266956210763,1,0.5435308817283686,0.001,0.320999413728714,1.0
493,1,493,1,1,1.4184023663831247,1.7758873094510923,1,0.5435308817283686,0.001,0.2680000960826874,1.0
494,1,494,-1,-1,0.3789640076384764,0.836046156610249,1,0.5435308817283686,0.001,0.6789948344230652,1.0
495,1,495,-1,-1,-3.2334266283694526,0.38644204781673364,1,0.5435308817283686,0.001,2.996965169906616,1.0
496,1,496,-1,-1,-1.1548032270651774,0.6451509517058043,1,0.5435308817283686,0.001,0.15700013935565948,0.0
497,1,497,-1,-1,-0.927697105842699,0.6734169548938272,1,0.5435308817283686,0.001,2.002037286758423,1.0
498,1,498,1,-1,-1.2052511501520633,1.3991487142326644,1,0.5435308817283686,0.001,0.0679999589920044,1.0
499,1,499,1,1,3.3767645605819023,2.0196283047468517,1,0.5435308817283686,0.001,0.21000024676322937,1.0
500,1,500,1,1,1.1026474086401568,1.7365879255588654,1,0.5435308817283686,0.001,0.6289954781532288,1.0
501,1,501,1,1,1.1019926569925709,1.7365064340866918,1,0.5435308817283686,0.001,0.8019932508468628,1.0
502,1,502,1,1,0.425024369269029,1.6522498421640162,1,0.5435308817283686,0.001,0.17600017786026,1.0
503,1,503,1,-1,1.4363635520750817,1.7279284458962352,1,0.5435308817283686,0.001,0.29799970984458923,1.0
504,1,504,1,-1,-1.6091396910513862,1.3488800789214985,1,0.5435308817283686,0.001,0.40099838376045227,1.0
505,1,505,1,-1,0.6059868742663057,1.6245783922038928,1,0.5435308817283686,0.001,0.7329941391944885,1.0
506,1,506,-1,1,0.1425693730151691,0.8568184321038534,1,0.5435308817283686,0.001,0.9059919118881226,1.0
507,1,507,-1,-1,-0.29455810213829253,0.7522184816903631,1,0.5435308817283686,0.001,0.933991551399231,0.0
508,1,508,1,-1,-0.6951407731847458,1.4626378948147978,1,0.5435308817283686,0.001,0.40699830651283264,1.0
509,1,509,-1,1,0.7014024371060157,0.9263717188498782,1,0.5435308817283686,0.001,0.9829909205436707,0.0
510,1,510,-1,-1,0.18361623985389597,0.8117328505784712,1,0.5435308817283686,0.001,0.3599989116191864,1.0
511,1,511,-1,-1,-1.1635734395552266,0.6440593965646704,1,0.5435308817283686,0.001,2.2410199642181396,1.0
512,1,512,-1,1,-1.0355847582124311,0.7101834217835519,1,0.5435308817283686,0.001,0.5849960446357727,1.0
513,1,513,1,-1,1.6773759305252853,1.7579252448418383,1,0.5435308817283686,0.001,1.0189915895462036,1.0
514,1,514,-1,1,0.5658798730017315,0.9095043565418931,1,0.5435308817283686,0.001,1.2120006084442139,0.0
515,1,515,-1,-1,0.9641859435483331,0.9088838459560336,1,0.5435308817283686,0.001,1.625019907951355,0.0
516,1,516,1,-1,-0.8575661660509765,1.442422161976513,1,0.5435308817283686,0.001,0.6049957871437073,1.0
517,1,517,-1,1,0.8375913923341997,0.9433220212984956,1,0.5435308817283686,0.001,1.4190102815628052,0.0
518,1,518,-1,-1,2.264809095512332,1.070761553003025,1,0.5435308817283686,0.001,0.3079995810985565,1.0
519,1,519,1,1,1.0658945686723562,1.732013606354668,1,0.5435308817283686,0.001,0.47799739241600037,1.0
520,1,520,-1,1,-0.035738229551356526,0.8346259731975749,1,0.5435308817283686,0.001,0.557996392250061,1.0
521,1,521,-1,1,0.15206422268869646,0.8580001767864585,1,0.5435308817283686,0.001,0.37599870562553406,1.0
522,1,522,-1,-1,0.3191961817100968,0.8286073542162888,1,0.5435308817283686,0.001,1.1479976177215576,0.0
523,1,523,-1,-1,-0.9049152376742962,0.6762524238578996,1,0.5435308817283686,0.001,1.0379924774169922,1.0
524,1,524,-1,1,0.9388772524004289,0.9559282268385438,1,0.5435308817283686,0.001,0.5629963278770447,0.0
525,1,525,1,1,0.4409714973939377,1.6542346480864285,1,0.5435308817283686,0.001,0.5239968299865723,1.0
526,1,526,-1,-1,0.6919970558620405,0.8750067671451623,1,0.5435308817283686,0.001,0.6159956455230713,1.0
527,1,527,1,-1,-0.7320907603412333,1.4580390383456692,1,0.5435308817283686,0.001,0.34099915623664856,1.0
528,1,528,1,-1,-2.5766601951704486,1.2284608779475346,1,0.5435308817283686,0.001,0.3599989116191864,1.0
529,1,529,-1,1,-0.6392492656287347,0.7595119922183525,1,0.5435308817283686,0.001,0.7619937658309937,0.0
530,1,530,-1,-1,-0.7063271096319883,0.7009690304827316,1,0.5435308817283686,0.001,4.829832553863525,0.0
531,1,531,1,1,0.14329393259443313,1.6171852063966423,1,0.5435308817283686,0.001,0.5409966111183167,1.0
532,1,532,1,-1,-0.4765316398974955,1.489846348841341,1,0.5435308817283686,0.001,0.17800018191337585,1.0
533,1,533,-1,1,0.43075668686198765,0.8926867014754307,1,0.5435308817283686,0.001,0.5479965209960938,1.0
534,1,534,-1,1,-0.046836069352339305,0.8332447177144282,1,0.5435308817283686,0.001,0.6369953751564026,1.0
535,1,535,1,1,-0.0061910491126453415,1.5985800585179792,1,0.5435308817283686,0.001,0.5609963536262512,1.0
536,1,536,1,1,1.2445051538426966,1.7542437749765598,1,0.5435308817283686,0.001,1.8380298614501953,1.0
537,1,537,-1,1,0.9385813987306961,0.9558914044018485,1,0.5435308817283686,0.001,0.8679924011230469,1.0
538,1,538,-1,-1,-1.0815043669331548,0.6542738489796323,1,0.5435308817283686,0.001,0.1930002123117447,1.0
539,1,539,1,-1,-1.9601960474160292,1.3051870246138253,1,0.5435308817283686,0.001,0.6609950661659241,1.0
540,1,540,1,1,-1.2305514446351162,1.4461941401779592,1,0.5435308817283686,0.001,0.3529990017414093,1.0
541,1,541,-1,1,0.3620935524359853,0.8841407742844866,1,0.5435308817283686,0.001,0.9199917316436768,1.0
542,1,542,-1,1,0.4715320467592272,0.897761670158107,1,0.5435308817283686,0.001,2.0290353298187256,1.0
543,1,543,-1,-1,-0.06010854353158368,0.7813984612318036,1,0.5435308817283686,0.001,0.5799961090087891,1.0
544,1,544,-1,1,0.15419095611335298,0.8582648735433659,1,0.5435308817283686,0.001,0.697994589805603,1.0
545,1,545,1,1,0.8196664776404998,1.7013676512010893,1,0.5435308817283686,0.001,0.15100012719631195,1.0
546,1,546,1,1,0.38472774378706137,1.6472344575578741,1,0.5435308817283686,0.001,0.6609950661659241,1.0
547,1,547,1,-1,-2.9194048951055085,1.1858023061358494,1,0.5435308817283686,0.001,0.27400001883506775,1.0
548,1,548,1,-1,-0.8433608495566771,1.4441901791446692,1,0.5435308817283686,0.001,0.35399898886680603,0.0
549,1,549,-1,-1,-1.7421864751997662,0.5720442618685061,1,0.5435308817283686,0.001,0.2819999158382416,1.0
550,1,550,-1,-1,-1.4522034803221655,0.6081360246689155,1,0.5435308817283686,0.001,4.373865604400635,1.0
551,1,551,-1,-1,-1.0809064701990985,0.6543482641953031,1,0.5435308817283686,0.001,0.2070002406835556,1.0
552,1,552,1,-1,-0.4787720034392311,1.4895675094922642,1,0.5435308817283686,0.001,0.27100005745887756,1.0
553,1,553,1,1,0.010735121339110809,1.6006867176664645,1,0.5435308817283686,0.001,0.3219994008541107,1.0
554,1,554,1,1,1.8660692177331868,1.831604665633831,1,0.5435308817283686,0.001,0.1220000684261322,1.0
555,1,555,1,-1,-0.053753249335936615,1.5424660460609219,1,0.5435308817283686,0.001,0.6109957098960876,1.0
556,1,556,-1,-1,-0.0658683502270232,0.7806815861711961,1,0.5435308817283686,0.001,2.273017644882202,1.0
557,1,557,1,-1,0.1711514404383523,1.5704580554525742,1,0.5435308817283686,0.001,0.837992787361145,1.0
558,1,558,1,-1,-0.8307694467061238,1.445757325953393,1,0.5435308817283686,0.001,0.5269967913627625,1.0
559,1,559,1,-1,-1.4076833471097765,1.373953668437488,1,0.5435308817283686,0.001,1.1799991130828857,1.0
560,1,560,-1,1,-0.03471327299156113,0.8347535409849636,1,0.5435308817283686,0.001,0.9549912810325623,1.0
561,1,561,-1,1,2.43139991689651,1.1416900643696195,1,0.5435308817283686,0.001,3.596921682357788,0.0
562,1,562,1,1,-0.6926418391436338,1.5131432586862874,1,0.5435308817283686,0.001,0.23900030553340912,1.0
563,1,563,-1,-1,0.13209068312667072,0.8053198946313717,1,0.5435308817283686,0.001,0.23900030553340912,1.0
564,1,564,1,1,0.3720073336011193,1.645651254282976,1,0.5435308817283686,0.001,0.16500015556812286,1.0
565,1,565,1,-1,-1.8372582749168955,1.3204880629596163,1,0.5435308817283686,0.001,0.2470003217458725,1.0
566,1,566,1,-1,-0.7973477043044488,1.4499170512491704,1,0.5435308817283686,0.001,0.20500023663043976,1.0
567,1,567,-1,1,0.543671416862438,0.9067402553866477,1,0.5435308817283686,0.001,0.26700010895729065,1.0
568,1,568,-1,1,2.2296652905353316,1.11658183936377,1,0.5435308817283686,0.001,0.19600021839141846,1.0
569,1,569,-1,1,-0.18169839792793685,0.8164595294115216,1,0.5435308817283686,0.001,1.6710220575332642,1.0
570,1,570,1,-1,-0.9092353244169684,1.4359913331321206,1,0.5435308817283686,0.001,0.4189981520175934,1.0
571,1,571,-1,1,0.27263741481544224,0.8730069155511351,1,0.5435308817283686,0.001,1.9220337867736816,0.0
572,1,572,-1,-1,-1.4828646745517013,0.6043198817610296,1,0.5435308817283686,0.001,1.3240058422088623,1.0
573,1,573,1,-1,-1.9579401959632916,1.3054677916139026,1,0.5435308817283686,0.001,0.11500005424022675,1.0
574,1,574,1,1,0.5117053886746459,1.663038305097871,1,0.5435308817283686,0.001,0.14800012111663818,1.0
575,1,575,-1,1,-0.04502231826421854,0.8334704601724612,1,0.5435308817283686,0.001,1.1849993467330933,1.0
576,1,576,-1,1,0.46533339168452276,0.8969901753029269,1,0.5435308817283686,0.001,1.120996356010437,1.0
577,1,577,-1,1,0.85909097749002,0.9459978951995793,1,0.5435308817283686,0.001,0.09800001978874207,1.0
578,1,578,1,-1,0.7241244184691602,1.639281986202541,1,0.5435308817283686,0.001,0.10900004208087921,1.0
579,1,579,1,-1,-0.9968157213383497,1.4250909321862428,1,0.5435308817283686,0.001,0.1620001494884491,1.0
580,1,580,-1,1,-0.5969998354618729,0.7647704261229974,1,0.5435308817283686,0.001,0.7509939074516296,0.0
581,1,581,1,1,0.5097614522883385,1.662796359562467,1,0.5435308817283686,0.001,0.5279967784881592,1.0
582,1,582,1,1,-0.43537953294471254,1.5451625504959223,1,0.5435308817283686,0.001,0.33699920773506165,1.0
583,1,583,1,-1,-1.5331205544824202,1.3583415462964978,1,0.5435308817283686,0.001,0.45699766278266907,1.0
584,1,584,-1,-1,-2.1795200431684227,0.5176130032133432,1,0.5435308817283686,0.001,0.3569989502429962,1.0
585,1,585,1,-1,-1.1428984885833713,1.4069092295424028,1,0.5435308817283686,0.001,0.9249916672706604,1.0
586,1,586,-1,-1,-1.3296355340150325,0.6233910338356342,1,0.5435308817283686,0.001,0.7889934182167053,1.0
587,1,587,1,1,0.8975803214656216,1.7110649369725925,1,0.5435308817283686,0.001,0.8949920535087585,1.0
588,1,588,-1,1,-1.9863466709902977,0.5918500227850132,1,0.5435308817283686,0.001,0.27000007033348083,1.0
589,1,589,1,1,1.175375532359857,1.7456397880355536,1,0.5435308817283686,0.001,0.28099992871284485,0.0
590,1,590,-1,-1,-1.2877666989796932,0.6286020982411963,1,0.5435308817283686,0.001,1.8460302352905273,1.0
591,1,591,1,1,0.7967488778430278,1.698515288854138,1,0.5435308817283686,0.001,0.10800004005432129,1.0
592,1,592,-1,1,-1.038719931624439,0.7097932129191593,1,0.5435308817283686,0.001,2.3470122814178467,1.0
593,1,593,-1,-1,0.4178709432468939,0.840888578117974,1,0.5435308817283686,0.001,0.49499717354774475,1.0
594,1,594,-1,1,0.5634690486003948,0.9092043013525078,1,0.5435308817283686,0.001,0.23200029134750366,1.0
595,1,595,-1,1,2.601221879438468,1.1628263864941337,1,0.5435308817283686,0.001,1.5050143003463745,1.0
596,1,596,1,-1,-0.2136576163888257,1.5225640842618913,1,0.5435308817283686,0.001,0.47399744391441345,0.0
597,1,597,1,-1,-1.885204484273338,1.3145205985019093,1,0.5435308817283686,0.001,0.14600011706352234,1.0
598,1,598,1,1,0.49091040426024424,1.6604501269695653,1,0.5435308817283686,0.001,0.8139930963516235,1.0
599,1,599,1,1,-0.9367521226057947,1.4827608893629558,1,0.5435308817283686,0.001,1.3170055150985718,0.0
600,1,600,1,1,1.4040942625661836,1.774106499202882,1,0.5435308817283686,0.001,0.43499794602394104,1.0
601,1,601,1,1,2.55309022764642,1.9171124359744753,1,0.5435308817283686,0.001,0.072999969124794,1.0
602,1,602,1,-1,-1.4115882466995915,1.3734676581808711,1,0.5435308817283686,0.001,0.4099982678890228,1.0
603,1,603,-1,-1,-0.08479924555173901,0.7783254156517923,1,0.5435308817283686,0.001,0.9539912939071655,1.0
604,1,604,1,1,-0.08760868303318337,1.5884466852404497,1,0.5435308817283686,0.001,0.5589963793754578,1.0
605,1,605,1,-1,-2.2470827912799907,1.2694806263317802,1,0.5435308817283686,0.001,0.23600029945373535,1.0
606,1,606,1,1,1.9710595572362275,1.8446719368070168,1,0.5435308817283686,0.001,0.3249993622303009,1.0
607,1,607,1,1,1.2477956486606194,1.7546533153998338,1,0.5435308817283686,0.001,0.22100026905536652,1.0
608,1,608,-1,-1,0.20872060606500076,0.8148573814873552,1,0.5435308817283686,0.001,0.3879985511302948,1.0
609,1,609,1,-1,-1.430722983195416,1.3710861172524207,1,0.5435308817283686,0.001,0.1670001596212387,1.0
610,1,610,-1,1,-0.2701491811064013,0.8054507987535909,1,0.5435308817283686,0.001,0.653995156288147,0.0
611,1,611,1,1,-0.5697111829678225,1.5284434113227163,1,0.5435308817283686,0.001,0.5699962377548218,1.0
612,1,612,-1,1,1.5818570051381482,1.0359545495236753,1,0.5435308817283686,0.001,2.6689889430999756,1.0
613,1,613,1,-1,-0.4790189223487527,1.4895367775566997,1,0.5435308817283686,0.001,0.2290002852678299,1.0
614,1,614,1,-1,-1.6029819293766858,1.349646484116529,1,0.5435308817283686,0.001,1.1879994869232178,1.0
615,1,615,1,1,1.6121029612124067,1.7999956056145534,1,0.5435308817283686,0.001,0.8169930577278137,1.0
616,1,616,1,1,0.6194729531660156,1.6764512342830533,1,0.5435308817283686,0.001,0.4969971477985382,1.0
617,1,617,-1,-1,-2.053501303839219,0.5332975037827508,1,0.5435308817283686,0.001,0.5059970617294312,1.0
618,1,618,1,-1,-0.5000563605820967,1.4869184232253825,1,0.5435308817283686,0.001,0.18600019812583923,1.0
619,1,619,-1,-1,-0.2666476622372215,0.7556922611683278,1,0.5435308817283686,0.001,0.3029996454715729,1.0
620,1,620,1,1,0.8194562521907123,1.701341486194167,1,0.5435308817283686,0.001,0.4169981777667999,1.0
621,1,621,1,-1,1.7879308289909694,1.77168509022012,1,0.5435308817283686,0.001,0.6129956841468811,1.0
622,1,622,1,1,1.1106343163482637,1.7375819892922626,1,0.5435308817283686,0.001,0.15000012516975403,1.0
623,1,623,-1,-1,-1.549433439265567,0.5960346232858448,1,0.5435308817283686,0.001,0.3459990918636322,1.0
624,1,624,-1,-1,-2.57288204767593,0.4686545180188199,1,0.5435308817283686,0.001,0.9789909720420837,0.0
625,1,625,-1,1,-1.4015043909806777,0.6646404595299931,1,0.5435308817283686,0.001,0.1260000765323639,1.0
626,1,626,1,1,0.42623894515959093,1.6524010102866977,1,0.5435308817283686,0.001,0.8649924397468567,1.0
627,1,627,1,-1,0.5121817406283462,1.612903250238582,1,0.5435308817283686,0.001,0.9709910750389099,1.0
628,1,628,-1,1,0.4272377578560958,0.8922487297555864,1,0.5435308817283686,0.001,0.3709987699985504,1.0
629,1,629,-1,-1,-0.8798851210161945,0.6793677135447038,1,0.5435308817283686,0.001,0.3289993107318878,1.0
630,1,630,1,1,0.13218617011384115,1.615802715920392,1,0.5435308817283686,0.001,0.3809986412525177,1.0
631,1,631,-1,-1,-0.13676471727110617,0.7718577071577186,1,0.5435308817283686,0.001,0.3379991948604584,1.0
632,1,632,1,1,0.6375724404317267,1.6787039263813566,1,0.5435308817283686,0.001,0.16800016164779663,1.0
633,1,633,-1,-1,0.36285409834087967,0.8340410906740536,1,0.5435308817283686,0.001,0.21000024676322937,1.0
634,1,634,-1,-1,0.9520627874132079,0.9073749779073884,1,0.5435308817283686,0.001,4.515855312347412,1.0
635,1,635,-1,1,0.37216104473982964,0.8853937910152734,1,0.5435308817283686,0.001,0.9579912424087524,1.0
636,1,636,-1,1,0.9865277538918518,0.961858887006651,1,0.5435308817283686,0.001,0.24600031971931458,1.0
637,1,637,1,-1,-2.5900491831242984,1.2267944623786775,1,0.5435308817283686,0.001,0.22400027513504028,1.0
638,1,638,-1,-1,-0.25072928678591355,0.7576734884854639,1,0.5435308817283686,0.001,1.7850273847579956,1.0
639,1,639,-1,1,1.215373316954571,0.9903413840009041,1,0.5435308817283686,0.001,0.2380003035068512,1.0
640,1,640,1,-1,-0.465212326457107,1.49125516929968,1,0.5435308817283686,0.001,0.4889972507953644,1.0
641,1,641,1,1,0.21572848119793953,1.6262005300291746,1,0.5435308817283686,0.001,0.13900010287761688,1.0
642,1,642,-1,-1,0.45981392621034,0.8461088710972132,1,0.5435308817283686,0.001,0.3009996712207794,1.0
643,1,643,1,-1,-1.2385549115623558,1.3950036730460629,1,0.5435308817283686,0.001,0.4889972507953644,1.0
644,1,644,-1,-1,0.8200015210855756,0.8909384144412085,1,0.5435308817283686,0.001,0.3499990403652191,1.0
645,1,645,-1,1,1.5722916902939679,1.0347640346294722,1,0.5435308817283686,0.001,0.1620001494884491,1.0
646,1,646,-1,-1,-0.07893579759214886,0.779055190075425,1,0.5435308817283686,0.001,0.39699843525886536,1.0
647,1,647,1,-1,0.17528716512229003,1.5709727945818928,1,0.5435308817283686,0.001,0.3389991819858551,1.0
648,1,648,-1,-1,1.055462601744438,0.9202442896890131,1,0.5435308817283686,0.001,1.0779943466186523,1.0
649,1,649,-1,-1,-0.528438674159051,0.7231093191597802,1,0.5435308817283686,0.001,1.8410300016403198,1.0
650,1,650,-1,1,0.48013135449374744,0.8988319542109117,1,0.5435308817283686,0.001,1.3160054683685303,0.0
651,1,651,-1,-1,-0.12246009404751812,0.7736380842055275,1,0.5435308817283686,0.001,0.22400027513504028,1.0
652,1,652,-1,-1,-0.4153834217746607,0.7371803627191451,1,0.5435308817283686,0.001,1.3060050010681152,0.0
653,1,653,1,-1,-0.912634518898803,1.4355682637690268,1,0.5435308817283686,0.001,0.20400023460388184,1.0
654,1,654,1,-1,0.47231847572549235,1.607941802406336,1,0.5435308817283686,0.001,0.320999413728714,1.0
655,1,655,-1,-1,-0.7224031783201047,0.6989681764047209,1,0.5435308817283686,0.001,0.37599870562553406,1.0
656,1,656,-1,1,0.1819837640578375,0.8617240123536022,1,0.5435308817283686,0.001,0.5459965467453003,1.0
657,1,657,-1,-1,-2.879033273596898,0.43055043046134767,1,0.5435308817283686,0.001,0.2720000445842743,0.0
658,1,658,-1,-1,-1.778416872035329,0.5675349667999943,1,0.5435308817283686,0.001,1.5130146741867065,1.0
659,1,659,1,1,2.1672505330228438,1.8690901899003067,1,0.5435308817283686,0.001,0.44999775290489197,1.0
660,1,660,1,-1,0.42225112891826155,1.601710337675878,1,0.5435308817283686,0.001,0.6469952464103699,1.0
661,1,661,-1,-1,-0.7657973799049616,0.6935672623574166,1,0.5435308817283686,0.001,0.6899946928024292,1.0
662,1,662,-1,1,1.037207497367949,0.9681665716386307,1,0.5435308817283686,0.001,0.7289941906929016,1.0
663,1,663,-1,1,0.5235068476967811,0.9042305397820947,1,0.5435308817283686,0.001,0.16900016367435455,1.0
664,1,664,1,1,-0.09538236136716571,1.5874791603873624,1,0.5435308817283686,0.001,1.0899949073791504,1.0
665,1,665,-1,-1,-0.8986926212507846,0.6770269009821535,1,0.5435308817283686,0.001,1.1559979915618896,1.0
666,1,666,1,1,1.0026126962973843,1.7241374399322635,1,0.5435308817283686,0.001,0.13800010085105896,1.0
667,1,667,1,1,0.3809392238253355,1.6467629321021109,1,0.5435308817283686,0.001,0.4099982678890228,1.0
668,1,668,-1,1,-0.4819011583995052,0.779095797694973,1,0.5435308817283686,0.001,0.46999749541282654,1.0
669,1,669,-1,-1,-2.031017742398953,0.5360958449984246,1,0.5435308817283686,0.001,0.8659924268722534,1.0
670,1,670,-1,1,2.0350770443580206,1.0923630646465026,1,0.5435308817283686,0.001,1.8170288801193237,1.0
671,1,671,-1,1,0.3228804624054572,0.879260248291401,1,0.5435308817283686,0.001,1.8360297679901123,0.0
672,1,672,1,-1,0.9568428397244269,1.668246505528152,1,0.5435308817283686,0.001,0.41799816489219666,1.0
673,1,673,-1,1,1.0656715330149016,0.9717092525580613,1,0.5435308817283686,0.001,0.5399966239929199,1.0
674,1,674,1,1,0.6436739841856444,1.6794633346010546,1,0.5435308817283686,0.001,0.3379991948604584,1.0
675,1,675,1,-1,0.09935371824494599,1.561521992287533,1,0.5435308817283686,0.001,0.18800020217895508,1.0
676,1,676,1,-1,-0.28680824779400926,1.513459635780385,1,0.5435308817283686,0.001,0.605995774269104,1.0
677,1,677,1,1,0.3000940640659257,1.6367008099048095,1,0.5435308817283686,0.001,0.4439978301525116,1.0
678,1,678,1,1,0.9725160117171702,1.720391556828303,1,0.5435308817283686,0.001,0.3989984095096588,1.0
679,1,679,-1,-1,-0.29334150094386524,0.7523699018857111,1,0.5435308817283686,0.001,0.34399911761283875,1.0
680,1,680,-1,-1,-0.2784368402334592,0.7542249605908177,1,0.5435308817283686,0.001,1.0199916362762451,1.0
681,1,681,1,1,1.2601811471127706,1.756194835006832,1,0.5435308817283686,0.001,0.5099970102310181,1.0
682,1,682,-1,1,2.0264463217490327,1.0912888706465018,1,0.5435308817283686,0.001,1.9710360765457153,1.0
683,1,683,-1,-1,-0.5114603003182809,0.7252224756283393,1,0.5435308817283686,0.001,1.653021216392517,1.0
684,1,684,1,-1,-0.07423389978407091,1.539916990457561,1,0.5435308817283686,0.001,0.18600019812583923,1.0
685,1,685,1,-1,2.2976533024117116,1.8351259916857543,1,0.5435308817283686,0.001,0.09000000357627869,1.0
686,1,686,-1,1,1.4441106262425452,1.0188104075514404,1,0.5435308817283686,0.001,0.5939959287643433,1.0
687,1,687,1,-1,-1.1909748389832036,1.4009255675153502,1,0.5435308817283686,0.001,1.2730034589767456,1.0
688,1,688,1,-1,-1.5371762434946366,1.3578367685391575,1,0.5435308817283686,0.001,0.2750000059604645,1.0
689,1,689,-1,1,-0.34427356539780274,0.7962251553785341,1,0.5435308817283686,0.001,1.3070050477981567,1.0
690,1,690,1,1,0.8877662510869382,1.7098434615534444,1,0.5435308817283686,0.001,0.10300002992153168,1.0
691,1,691,-1,1,2.175166932206132,1.1097988836161083,1,0.5435308817283686,0.001,0.7119944095611572,1.0
692,1,692,-1,1,0.7037150740399208,0.9266595534647915,1,0.5435308817283686,0.001,0.9129918217658997,1.0
693,1,693,-1,1,2.0598323148618807,1.0954441465267086,1,0.5435308817283686,0.001,0.3349992334842682,1.0
694,1,694,-1,1,1.0084493835360844,0.9645872892622799,1,0.5435308817283686,0.001,0.251000314950943,1.0
695,1,695,1,1,0.7212233231538598,1.6891152534956462,1,0.5435308817283686,0.001,0.21300025284290314,1.0
696,1,696,-1,1,1.5493883716493582,1.0319134497384086,1,0.5435308817283686,0.001,0.6209955811500549,1.0
697,1,697,1,-1,-1.3064958357846026,1.3865476333306825,1,0.5435308817283686,0.001,0.30199965834617615,1.0
698,1,698,-1,1,0.2817915659056807,0.8741462563249879,1,0.5435308817283686,0.001,1.873031497001648,1.0
699,1,699,1,-1,-0.19973627148891587,1.524296757856087,1,0.5435308817283686,0.001,0.24400031566619873,1.0
700,1,700,-1,1,1.7844836483014836,1.0611737964149666,1,0.5435308817283686,0.001,0.8949920535087585,1.0
701,1,701,1,-1,0.8844197242796337,1.6592326048854489,1,0.5435308817283686,0.001,1.108995795249939,1.0
702,1,702,1,1,-0.1031475825014887,1.586512688131322,1,0.5435308817283686,0.001,1.5800178050994873,1.0
703,1,703,1,-1,-1.8522724252268468,1.3186193769979957,1,0.5435308817283686,0.001,0.6669949889183044,1.0
704,1,704,-1,1,-0.8232686091778993,0.7366086405895205,1,0.5435308817283686,0.001,1.1929997205734253,1.0
705,1,705,1,-1,-0.34924970496904684,1.5056880688227272,1,0.5435308817283686,0.001,0.6309954524040222,0.0
706,1,706,1,1,1.5151390301157797,1.7879273144969592,1,0.5435308817283686,0.001,0.3809986412525177,1.0
707,1,707,1,-1,0.21215475675907247,1.575561395968463,1,0.5435308817283686,0.001,0.583996057510376,1.0
708,1,708,-1,1,0.7308685330464072,0.9300391178495458,1,0.5435308817283686,0.001,1.7930277585983276,1.0
709,1,709,-1,-1,-0.07647027023041764,0.779362053685669,1,0.5435308817283686,0.001,0.9039919376373291,1.0
710,1,710,-1,-1,-2.235683030122546,0.5106228650358742,1,0.5435308817283686,0.001,1.4370111227035522,1.0
711,1,711,-1,-1,-0.037784564083345296,0.7841769406090068,1,0.5435308817283686,0.001,1.758026123046875,1.0
712,1,712,1,-1,-0.062046268444653996,1.541433883196691,1,0.5435308817283686,0.001,0.3979984223842621,1.0
713,1,713,-1,-1,-0.9197259613389287,0.6744090567127609,1,0.5435308817283686,0.001,0.9489913582801819,1.0
714,1,714,-1,1,0.04621146461401615,0.844825567572518,1,0.5435308817283686,0.001,0.7959933280944824,1.0
715,1,715,-1,1,-0.22203104763389525,0.8114396611709239,1,0.5435308817283686,0.001,1.3350063562393188,0.0
716,1,716,1,-1,-0.6688975968103923,1.4659041639187231,1,0.5435308817283686,0.001,1.0659937858581543,1.0
717,1,717,-1,-1,-1.1867712717349244,0.6411721560322843,1,0.5435308817283686,0.001,0.49199721217155457,1.0
718,1,718,-1,1,2.149095412103434,1.1065539791354513,1,0.5435308817283686,0.001,2.6069934368133545,0.0
719,1,719,1,-1,0.23629817946431952,1.5785663262604464,1,0.5435308817283686,0.001,0.955991268157959,1.0
720,1,720,1,1,0.12799120614566195,1.6152806037718515,1,0.5435308817283686,0.001,1.232001543045044,1.0
721,1,721,-1,-1,-1.1164071553724262,0.6499297902462753,1,0.5435308817283686,0.001,0.20400023460388184,1.0
722,1,722,1,-1,0.35371728685491244,1.5931805024260723,1,0.5435308817283686,0.001,1.1499977111816406,1.0
723,1,723,-1,1,1.8455093056930605,1.0687691505916677,1,0.5435308817283686,0.001,0.6079957485198975,1.0
724,1,724,-1,-1,-2.1352580758932342,0.5231219208126316,1,0.5435308817283686,0.001,0.23900030553340912,1.0
725,1,725,-1,-1,-0.8938250416544464,0.6776327279834137,1,0.5435308817283686,0.001,0.3029996454715729,0.0
726,1,726,1,-1,-1.2816541844286782,1.3896394663144993,1,0.5435308817283686,0.001,1.2410019636154175,1.0
727,1,727,-1,1,-0.5067802462397022,0.775999305304452,1,0.5435308817283686,0.001,0.4369979202747345,1.0
728,1,728,-1,1,1.9345249466621097,1.0798481843837608,1,0.5435308817283686,0.001,0.33299925923347473,1.0
729,1,729,-1,1,0.005158965447203512,0.8397161056783197,1,0.5435308817283686,0.001,0.1710001677274704,1.0
730,1,730,-1,1,-1.0238085575316425,0.7116491071829334,1,0.5435308817283686,0.001,0.45699766278266907,1.0
731,1,731,1,-1,-0.5593667604455127,1.4795365528354605,1,0.5435308817283686,0.001,1.478013038635254,1.0
732,1,732,-1,1,0.42499372640535205,0.8919694338924926,1,0.5435308817283686,0.001,0.5669962763786316,1.0
733,1,733,1,1,1.0535424922510006,1.7304762465088597,1,0.5435308817283686,0.001,0.5109969973564148,1.0
734,1,734,-1,1,0.5744650386009005,0.910572880441159,1,0.5435308817283686,0.001,0.3779986798763275,1.0
735,1,735,-1,-1,-2.378464841572155,0.4928520048058555,1,0.5435308817283686,0.001,1.3250058889389038,1.0
736,1,736,-1,-1,0.4177197736325462,0.8408697632979326,1,0.5435308817283686,0.001,0.3449991047382355,1.0
737,1,737,1,1,1.5054865150761607,1.7867259465223153,1,0.5435308817283686,0.001,0.697994589805603,1.0
738,1,738,-1,1,2.0135028224302984,1.0896779013294349,1,0.5435308817283686,0.001,0.4659975469112396,1.0
739,1,739,1,1,-0.8615007999886555,1.4921267933445368,1,0.5435308817283686,0.001,0.4619975984096527,1.0
740,1,740,1,-1,-3.2945736053806134,1.1391081884097396,1,0.5435308817283686,0.001,0.20900024473667145,1.0
741,1,741,-1,1,1.3840699398703498,1.0113376444956836,1,0.5435308817283686,0.001,0.1750001758337021,1.0
742,1,742,1,1,0.6396976283193676,1.6789684307781727,1,0.5435308817283686,0.001,0.3589989244937897,1.0
743,1,743,1,-1,-0.58418847680478,1.4764472009942746,1,0.5435308817283686,0.001,1.8600308895111084,1.0
744,1,744,1,-1,-2.0533396080440807,1.2935942231187165,1,0.5435308817283686,0.001,0.3169994652271271,1.0
745,1,745,1,-1,-0.29403306508643007,1.5125604230796388,1,0.5435308817283686,0.001,0.42199811339378357,1.0
746,1,746,1,1,-1.1261020752267514,1.459194081319095,1,0.5435308817283686,0.001,0.23200029134750366,1.0
747,1,747,-1,-1,-0.19262851262743874,0.7649048068609878,1,0.5435308817283686,0.001,0.22600027918815613,0.0
748,1,748,-1,1,1.09361559836293,0.9751872171147273,1,0.5435308817283686,0.001,1.3500070571899414,1.0
749,1,749,-1,-1,-2.7454319220200034,0.4471786754829658,1,0.5435308817283686,0.001,2.1340277194976807,1.0
750,1,750,-1,1,0.6667140322480032,0.9220543426513588,1,0.5435308817283686,0.001,0.8609924912452698,0.0
751,1,751,-1,1,-0.47317496701772477,0.7801818738962175,1,0.5435308817283686,0.001,1.4700126647949219,1.0
752,1,752,-1,-1,1.3745246386676784,0.9599552781216611,1,0.5435308817283686,0.001,0.7379940748214722,1.0
753,1,753,1,1,0.21390532847149563,1.6259736174276977,1,0.5435308817283686,0.001,0.5389966368675232,1.0
754,1,754,1,-1,-1.1023137827178686,1.4119604691091932,1,0.5435308817283686,0.001,0.25000032782554626,1.0
755,1,755,1,-1,-2.9746017677611025,1.1789324121406826,1,0.5435308817283686,0.001,0.5369966626167297,1.0
756,1,756,-1,1,2.7066513536589087,1.17594831310001,1,0.5435308817283686,0.001,1.99403715133667,1.0
757,1,757,1,1,1.6236709929305435,1.8014353819608004,1,0.5435308817283686,0.001,0.2200002670288086,1.0
758,1,758,-1,1,0.08246192965356036,0.8493373603628642,1,0.5435308817283686,0.001,0.24900032579898834,1.0
759,1,759,-1,1,2.4840627469418153,1.148244567233471,1,0.5435308817283686,0.001,3.1669528484344482,1.0
760,1,760,1,1,0.19231022537080888,1.6232858552053324,1,0.5435308817283686,0.001,1.005990982055664,1.0
761,1,761,1,-1,-1.7099039747375748,1.3363387896397247,1,0.5435308817283686,0.001,0.25700023770332336,1.0
762,1,762,1,-1,0.18942941919124345,1.5727329628963667,1,0.5435308817283686,0.001,0.5219968557357788,1.0
763,1,763,-1,1,0.32646406946854134,0.8797062699491376,1,0.5435308817283686,0.001,0.9209917187690735,1.0
764,1,764,-1,1,0.7098046036417687,0.927417466383267,1,0.5435308817283686,0.001,0.3919984996318817,1.0
765,1,765,-1,-1,-0.30548750826427984,0.7508581897407783,1,0.5435308817283686,0.001,0.4589976370334625,1.0
766,1,766,-1,-1,-1.595801547356582,0.5902635719197775,1,0.5435308817283686,0.001,0.2520003020763397,1.0
767,1,767,1,-1,-1.0047000084564799,1.4241096407810763,1,0.5435308817283686,0.001,0.29199978709220886,1.0
768,1,768,-1,-1,-0.7977366007760796,0.6895920541415113,1,0.5435308817283686,0.001,0.25600025057792664,1.0
769,1,769,1,1,-1.0629429064957778,1.467054975843174,1,0.5435308817283686,0.001,0.3149994909763336,1.0
770,1,770,1,1,2.3030978607798085,1.8859979728292449,1,0.5435308817283686,0.001,0.9909908175468445,1.0
771,1,771,-1,1,-0.32290638101694535,0.7988845504603459,1,0.5435308817283686,0.001,0.789993405342102,0.0
772,1,772,-1,-1,-1.7522565808191948,0.5707909198801426,1,0.5435308817283686,0.001,0.5369966626167297,1.0
773,1,773,1,-1,1.074569194093725,1.682898922160538,1,0.5435308817283686,0.001,0.583996057510376,1.0
774,1,774,-1,-1,-0.0009845212207929555,0.7887571347634976,1,0.5435308817283686,0.001,0.39599844813346863,1.0
775,1,775,-1,1,1.478059937500088,1.0230357949389377,1,0.5435308817283686,0.001,1.897032618522644,1.0
776,1,776,1,1,1.0247091996417552,1.7268876072576271,1,0.5435308817283686,0.001,0.3029996454715729,1.0
777,1,777,-1,1,0.7961424664269132,0.9381632194769993,1,0.5435308817283686,0.001,0.6889947056770325,1.0
778,1,778,1,1,2.170129683683615,1.869448533749949,1,0.5435308817283686,0.001,0.767993688583374,1.0
779,1,779,1,1,0.6965250545861595,1.686041266170622,1,0.5435308817283686,0.001,0.35099902749061584,1.0
780,1,780,1,-1,-0.5681297050612781,1.4784459022659717,1,0.5435308817283686,0.001,0.782993495464325,1.0
781,1,781,-1,1,1.4138006626441755,1.015037979388392,1,0.5435308817283686,0.001,0.2470003217458725,1.0
782,1,782,-1,-1,0.6054519692088989,0.8642352226263381,1,0.5435308817283686,0.001,0.8399927616119385,0.0
783,1,783,-1,1,1.7958341868902072,1.0625865032068735,1,0.5435308817283686,0.001,0.32599934935569763,1.0
784,1,784,1,1,1.1898019184831454,1.747435319895098,1,0.5435308817283686,0.001,0.9969907402992249,1.0
785,1,785,-1,-1,-1.3614226446693984,0.6194347575087,1,0.5435308817283686,0.001,1.222001075744629,1.0
786,1,786,-1,-1,-1.3498690449606037,0.6208727376232123,1,0.5435308817283686,0.001,0.07799997925758362,1.0
787,1,787,-1,-1,0.5632446596883356,0.8589820311269448,1,0.5435308817283686,0.001,0.16900016367435455,1.0
788,1,788,-1,-1,1.172096282363635,0.934760710340588,1,0.5435308817283686,0.001,0.7809935212135315,1.0
789,1,789,-1,1,-0.4217131928587512,0.7865868913594584,1,0.5435308817283686,0.001,0.15700013935565948,1.0
790,1,790,1,1,0.23996910423156764,1.6292175580346724,1,0.5435308817283686,0.001,0.3349992334842682,1.0
791,1,791,-1,1,0.8998446156169904,0.9510701603548282,1,0.5435308817283686,0.001,2.9009721279144287,0.0
792,1,792,-1,-1,-0.20917501737132982,0.7628454015339808,1,0.5435308817283686,0.001,0.32999929785728455,1.0
793,1,793,1,-1,-0.35477050205159333,1.505000941293554,1,0.5435308817283686,0.001,0.5699962377548218,1.0
794,1,794,-1,-1,-1.1152442701258334,0.6500745248659789,1,0.5435308817283686,0.001,0.8239929676055908,1.0
795,1,795,-1,-1,-1.7147525449888832,0.5754587341628974,1,0.5435308817283686,0.001,1.2860040664672852,1.0
796,1,796,-1,-1,-1.4004554035579806,0.6145766758275762,1,0.5435308817283686,0.001,0.2869998514652252,1.0
797,1,797,1,-1,-0.24321048970382725,1.518885884806762,1,0.5435308817283686,0.001,1.013991355895996,1.0
798,1,798,-1,-1,-0.878979701907948,0.6794804035033118,1,0.5435308817283686,0.001,0.44199785590171814,1.0
799,1,799,-1,-1,2.2310393288620616,1.0665585120340841,1,0.5435308817283686,0.001,1.8250292539596558,1.0
800,1,800,-1,1,2.0218136046996964,1.0907122750260012,1,0.5435308817283686,0.001,0.29199978709220886,1.0
801,1,801,1,1,0.5582419925864894,1.6688303277322734,1,0.5435308817283686,0.001,0.3449991047382355,1.0
802,1,802,-1,-1,-0.5309304058141503,0.7227991941198754,1,0.5435308817283686,0.001,0.6749948859214783,0.0
803,1,803,1,1,1.2378355026574477,1.753413659167041,1,0.5435308817283686,0.001,0.28499987721443176,1.0
804,1,804,-1,1,-0.44529484796725827,0.7836518795910044,1,0.5435308817283686,0.001,0.41399821639060974,1.0
805,1,805,1,-1,-1.2746902899637869,1.3905062041289011,1,0.5435308817283686,0.001,0.10300002992153168,1.0
806,1,806,1,1,1.5107475769171954,1.7873807469740626,1,0.5435308817283686,0.001,0.40099838376045227,1.0
807,1,807,-1,1,1.8602294815953655,1.0706012480126579,1,0.5435308817283686,0.001,0.47399744391441345,1.0
808,1,808,-1,-1,-0.5313750949671107,0.7227438473729555,1,0.5435308817283686,0.001,0.2799999415874481,1.0
809,1,809,-1,-1,-1.7222925028592033,0.5745202985449898,1,0.5435308817283686,0.001,0.6619950532913208,1.0
810,1,810,1,-1,-2.559196476000359,1.2306344412979162,1,0.5435308817283686,0.001,1.4450114965438843,1.0
811,1,811,-1,1,0.08644041835191307,0.8498325296415513,1,0.5435308817283686,0.001,0.4729974567890167,1.0
812,1,812,-1,1,1.5551979530295177,1.0326365198385394,1,0.5435308817283686,0.001,0.9969907402992249,1.0
813,1,813,1,1,1.2137680655191045,1.7504181861642967,1,0.5435308817283686,0.001,0.3639988601207733,1.0
814,1,814,1,1,-0.6553042925366082,1.5177903514451534,1,0.5435308817283686,0.001,0.1530001312494278,1.0
815,1,815,-1,1,1.4150944098870741,1.0151990013084327,1,0.5435308817283686,0.001,0.3809986412525177,1.0
816,1,816,1,1,-0.4626351135576101,1.5417702758872565,1,0.5435308817283686,0.001,0.2959997355937958,1.0
817,1,817,1,1,0.0005220037553211876,1.5994155761726594,1,0.5435308817283686,0.001,0.19000020623207092,1.0
818,1,818,-1,1,2.8301860775055228,1.1913236489970958,1,0.5435308817283686,0.001,1.1299967765808105,1.0
819,1,819,1,1,0.30399293924186954,1.6371860703529195,1,0.5435308817283686,0.001,0.7099944353103638,1.0
820,1,820,-1,-1,-1.030305765635907,0.6606461115135542,1,0.5435308817283686,0.001,0.7669937014579773,1.0
821,1,821,-1,1,1.125077917462441,0.9791030693479579,1,0.5435308817283686,0.001,0.39399847388267517,1.0
822,1,822,1,1,1.6230988395671628,1.80136417080759,1,0.5435308817283686,0.001,0.4059983193874359,1.0
823,1,823,1,-1,-1.1777182929169592,1.402575499147988,1,0.5435308817283686,0.001,0.23200029134750366,1.0
824,1,824,-1,1,0.9319585124964171,0.9550671090354165,1,0.5435308817283686,0.001,0.5369966626167297,1.0
825,1,825,-1,-1,-0.8638219153387839,0.6813669666711432,1,0.5435308817283686,0.001,0.34399911761283875,1.0
826,1,826,-1,1,0.8252520724496661,0.9417862491523429,1,0.5435308817283686,0.001,0.4869972765445709,1.0
827,1,827,-1,1,-1.8073478479085643,0.6141285121390019,1,0.5435308817283686,0.001,0.39999839663505554,1.0
828,1,828,1,1,1.5872936460366596,1.7969077972451641,1,0.5435308817283686,0.001,0.3919984996318817,1.0
829,1,829,-1,1,0.6018358556170974,0.9139794975630319,1,0.5435308817283686,0.001,0.9809909462928772,1.0
830,1,830,-1,-1,1.4597354608473192,0.9705607578789606,1,0.5435308817283686,0.001,0.4329979717731476,1.0
831,1,831,-1,1,2.175371761397682,1.109824376995812,1,0.5435308817283686,0.001,0.23600029945373535,1.0
832,1,832,-1,1,0.9963238160239266,0.9630781210896638,1,0.5435308817283686,0.001,1.629020094871521,1.0
833,1,833,1,1,1.1677514681479368,1.744690884403367,1,0.5435308817283686,0.001,0.2969997227191925,1.0
834,1,834,1,-1,-1.910760070106661,1.3113399080531085,1,0.5435308817283686,0.001,1.3240058422088623,1.0
835,1,835,1,1,-0.24546169366375614,1.568800038652039,1,0.5435308817283686,0.001,0.45999762415885925,1.0
836,1,836,-1,-1,-0.9339768235982697,0.6726353708434134,1,0.5435308817283686,0.001,0.5049970746040344,1.0
837,1,837,-1,1,-0.5509126598620362,0.7705065121669126,1,0.5435308817283686,0.001,2.7299845218658447,1.0
838,1,838,1,1,1.442480019143876,1.7788840539070851,1,0.5435308817283686,0.001,0.653995156288147,1.0
839,1,839,-1,-1,0.24697977501907753,0.8196191808867103,1,0.5435308817283686,0.001,0.59499591588974,1.0
840,1,840,1,1,1.069285549232239,1.7324356533994603,1,0.5435308817283686,0.001,0.8769922852516174,1.0
841,1,841,1,-1,-1.4253912162854339,1.3717497177739042,1,0.5435308817283686,0.001,0.5979958772659302,1.0
842,1,842,-1,1,0.6725131056078886,0.9227761049059195,1,0.5435308817283686,0.001,0.789993405342102,1.0
843,1,843,1,1,-0.10147894660091872,1.586720369313279,1,0.5435308817283686,0.001,1.90103280544281,1.0
844,1,844,1,1,-0.16127947747891225,1.579277496407238,1,0.5435308817283686,0.001,0.4649975597858429,1.0
845,1,845,1,1,-0.6491098623235079,1.5185613204670758,1,0.5435308817283686,0.001,0.8949920535087585,1.0
846,1,846,-1,-1,-1.4611550331618268,0.6070218996081658,1,0.5435308817283686,0.001,1.2230011224746704,1.0
847,1,847,1,-1,-0.15978555462608063,1.5292690901038053,1,0.5435308817283686,0.001,0.40099838376045227,1.0
848,1,848,-1,1,-2.101274050113942,0.5775459712375972,1,0.5435308817283686,0.001,0.546996533870697,1.0
849,1,849,1,1,2.3277043357111005,1.889060535366573,1,0.5435308817283686,0.001,0.3529990017414093,1.0
850,1,850,-1,1,1.7547820763885615,1.0574770896865842,1,0.5435308817283686,0.001,0.6029958128929138,1.0
851,1,851,1,-1,-1.4390503336742366,1.370049681449127,1,0.5435308817283686,0.001,0.4889972507953644,1.0
852,1,852,1,-1,1.298851124760823,1.7108134219244688,1,0.5435308817283686,0.001,0.2160002589225769,1.0
853,1,853,-1,1,1.8420283830831239,1.0683359092106774,1,0.5435308817283686,0.001,0.3519990146160126,1.0
854,1,854,-1,-1,-1.3895431460717602,0.6159348334291139,1,0.5435308817283686,0.001,0.3389991819858551,1.0
855,1,855,1,1,0.8719307781315405,1.707872552417963,1,0.5435308817283686,0.001,0.697994589805603,1.0
856,1,856,1,1,1.092695798965714,1.7353493317716544,1,0.5435308817283686,0.001,0.6669949889183044,1.0
857,1,857,1,-1,-1.0745161307524556,1.4154202108142802,1,0.5435308817283686,0.001,0.36799880862236023,1.0
858,1,858,-1,1,-0.8480093544829035,0.7335293665395699,1,0.5435308817283686,0.001,1.0789943933486938,1.0
859,1,859,1,-1,-1.6495812548342388,1.343846655054887,1,0.5435308817283686,0.001,0.26700010895729065,1.0
860,1,860,-1,1,1.1176857111413145,0.9781830231320534,1,0.5435308817283686,0.001,1.5440161228179932,1.0
861,1,861,-1,-1,-1.1429773286715887,0.6466228225646569,1,0.5435308817283686,0.001,0.4339979588985443,0.0
862,1,862,-1,1,-0.10661862101646158,0.8258040825310601,1,0.5435308817283686,0.001,1.4430114030838013,1.0
863,1,863,-1,1,2.5495246819605297,1.156392067855528,1,0.5435308817283686,0.001,0.5229968428611755,1.0
864,1,864,1,-1,-1.217966105849832,1.3975661898323792,1,0.5435308817283686,0.001,0.42499807476997375,1.0
865,1,865,1,-1,0.15130983020175448,1.5679885358500896,1,0.5435308817283686,0.001,0.24100030958652496,1.0
866,1,866,-1,1,0.6623874398061883,0.9215158478054457,1,0.5435308817283686,0.001,0.977990984916687,1.0
867,1,867,-1,-1,-0.8619292659672877,0.6816025289399211,1,0.5435308817283686,0.001,0.2340002954006195,0.0
868,1,868,1,-1,-0.7270325919637003,1.4586685863416249,1,0.5435308817283686,0.001,0.502997100353241,1.0
869,1,869,-1,-1,0.7447888098476765,0.8815773160957012,1,0.5435308817283686,0.001,0.6989945769309998,1.0
870,1,870,1,-1,-0.013915161815727939,1.547424360274513,1,0.5435308817283686,0.001,0.5529964566230774,1.0
871,1,871,-1,1,1.6080326958325721,1.0392124192483423,1,0.5435308817283686,0.001,0.21900026500225067,1.0
872,1,872,1,1,3.5778730251207436,2.044658596617429,1,0.5435308817283686,0.001,0.8699923753738403,1.0
873,1,873,1,1,0.8416561941824148,1.7041045276645317,1,0.5435308817283686,0.001,0.06899996101856232,1.0
874,1,874,-1,1,1.864650098892408,1.0711514453474484,1,0.5435308817283686,0.001,1.7270246744155884,1.0
875,1,875,1,-1,-0.6606527443966171,1.466930331876496,1,0.5435308817283686,0.001,0.8449926972389221,1.0
876,1,876,1,-1,-3.3103673237280904,1.1371424761217683,1,0.5435308817283686,0.001,1.9810365438461304,1.0
877,1,877,-1,-1,-2.1036543756356743,0.5270553695784551,1,0.5435308817283686,0.001,0.15100012719631195,1.0
878,1,878,-1,1,0.946016514252378,0.9568167911677705,1,0.5435308817283686,0.001,0.46999749541282654,1.0
879,1,879,1,1,0.6389364549758396,1.678873693885838,1,0.5435308817283686,0.001,0.6909946799278259,1.0
880,1,880,1,1,1.1066648343975087,1.7370879410082671,1,0.5435308817283686,0.001,0.605995774269104,1.0
881,1,881,-1,1,-0.2279222250691334,0.8107064354909232,1,0.5435308817283686,0.001,0.1660001575946808,0.0
882,1,882,1,-1,0.48142454316788075,1.609075158609909,1,0.5435308817283686,0.001,1.0579934120178223,1.0
883,1,883,1,1,0.7644498528458425,1.6944952988220503,1,0.5435308817283686,0.001,0.1580001413822174,1.0
884,1,884,1,1,-0.19963348201950049,1.57450389361405,1,0.5435308817283686,0.001,0.4959971606731415,1.0
885,1,885,1,1,0.643753859264938,1.6794732759854338,1,0.5435308817283686,0.001,0.11800006031990051,1.0
886,1,886,1,1,1.5610710576652163,1.7936440905581068,1,0.5435308817283686,0.001,0.1350000947713852,1.0
887,1,887,-1,1,0.6866865295238541,0.9245401526710673,1,0.5435308817283686,0.001,0.40099838376045227,1.0
888,1,888,-1,-1,-0.6352479409946371,0.7098156612846254,1,0.5435308817283686,0.001,0.8099931478500366,1.0
889,1,889,1,-1,-1.3362901597104306,1.3828393825334817,1,0.5435308817283686,0.001,0.29899969696998596,1.0
890,1,890,1,1,0.9181998047151321,1.7136312719358633,1,0.5435308817283686,0.001,0.37499871850013733,1.0
891,1,891,1,-1,-1.2539222337521685,1.393091030728584,1,0.5435308817283686,0.001,0.11600005626678467,1.0
892,1,892,1,-1,-1.3576957894582171,1.380175202477763,1,0.5435308817283686,0.001,1.0639936923980713,1.0
893,1,893,-1,1,1.332652779378257,1.0049381797231562,1,0.5435308817283686,0.001,0.34699907898902893,1.0
894,1,894,-1,-1,-0.09775949207453127,0.7767123619500299,1,0.5435308817283686,0.001,0.7659937143325806,0.0
895,1,895,1,1,1.5763044264858213,1.795540060817868,1,0.5435308817283686,0.001,0.3589989244937897,1.0
896,1,896,1,-1,-2.1029814222729653,1.2874157208762416,1,0.5435308817283686,0.001,0.23600029945373535,1.0
897,1,897,1,-1,-0.2379350805899491,1.5195424709437992,1,0.5435308817283686,0.001,0.40399834513664246,1.0
898,1,898,1,-1,-0.9663189911441801,1.4288866056284757,1,0.5435308817283686,0.001,0.8709923624992371,1.0
899,1,899,1,1,0.6418731714598598,1.6792392024729812,1,0.5435308817283686,0.001,0.2030002325773239,1.0
900,1,900,1,-1,-1.25190324687706,1.3933423171718609,1,0.5435308817283686,0.001,1.0309921503067017,1.0
901,1,901,1,-1,-0.0955721640189422,1.537261194824915,1,0.5435308817283686,0.001,0.6309954524040222,1.0
902,1,902,-1,1,-0.034162316070888155,0.8348221139938828,1,0.5435308817283686,0.001,0.26300016045570374,1.0
903,1,903,-1,-1,-1.4172987123888225,0.6124803297733762,1,0.5435308817283686,0.001,0.3139995038509369,1.0
904,1,904,1,-1,-0.5724801115134821,1.4779044434889679,1,0.5435308817283686,0.001,0.2070002406835556,1.0
905,1,905,-1,1,-0.036680021879340385,0.834508756167924,1,0.5435308817283686,0.001,0.4119982421398163,1.0
906,1,906,1,-1,1.7469247919018098,1.7665814110728948,1,0.5435308817283686,0.001,0.4959971606731415,1.0
907,1,907,1,-1,0.9001448297675294,1.6611897775035196,1,0.5435308817283686,0.001,0.20400023460388184,1.0
908,1,908,-1,-1,-0.5329946858265759,0.7225422704178717,1,0.5435308817283686,0.001,0.9179917573928833,1.0
909,1,909,-1,1,-1.0663051606403657,0.7063599097254392,1,0.5435308817283686,0.001,2.174024820327759,1.0
910,1,910,-1,-1,-0.6117489605753458,0.7127403832246222,1,0.5435308817283686,0.001,1.5640170574188232,1.0
911,1,911,-1,-1,-0.5466805167152529,0.7208389092867504,1,0.5435308817283686,0.001,2.366010904312134,1.0
912,1,912,-1,1,0.7286428452923155,0.9297621050732541,1,0.5435308817283686,0.001,0.6189956068992615,1.0
913,1,913,-1,-1,0.046762335149451606,0.7946997874190695,1,0.5435308817283686,0.001,1.1529978513717651,1.0
914,1,914,-1,1,-0.5105965877372247,0.7755243171343627,1,0.5435308817283686,0.001,1.4090098142623901,1.0
915,1,915,1,1,-0.24936446059171358,1.5683142938300416,1,0.5435308817283686,0.001,0.4439978301525116,1.0
916,1,916,1,-1,0.3446819617546283,1.5920559509313144,1,0.5435308817283686,0.001,0.4729974567890167,1.0
917,1,917,1,-1,0.5550363682474679,1.6182370080183515,1,0.5435308817283686,0.001,0.11200004816055298,1.0
918,1,918,-1,1,0.7836890766695306,0.9366132500059473,1,0.5435308817283686,0.001,1.3050049543380737,1.0
919,1,919,1,-1,-0.2086035829858775,1.5231931176120763,1,0.5435308817283686,0.001,0.3249993622303009,1.0
920,1,920,1,-1,-0.9917119421665144,1.425726156977039,1,0.5435308817283686,0.001,0.9179917573928833,1.0
921,1,921,1,1,-0.061666587764159564,1.5916754812924059,1,0.5435308817283686,0.001,0.734994113445282,1.0
922,1,922,1,-1,-0.42461115938837213,1.4963084576550303,1,0.5435308817283686,0.001,0.189000204205513,1.0
923,1,923,-1,-1,-0.19330379026361616,0.7648207606903507,1,0.5435308817283686,0.001,0.6679949760437012,1.0
924,1,924,-1,1,1.436838072047004,1.0179052534368367,1,0.5435308817283686,0.001,0.6499952077865601,1.0
925,1,925,-1,1,2.5588981438926943,1.1575587044192241,1,0.5435308817283686,0.001,0.4189981520175934,1.0
926,1,926,-1,-1,-1.939044668845992,0.5475429657376913,1,0.5435308817283686,0.001,1.8880321979522705,0.0
927,1,927,-1,-1,0.30970217567311287,0.8274257145340822,1,0.5435308817283686,0.001,0.5429965853691101,0.0
928,1,928,-1,-1,-0.02852660679063923,0.7853292012743802,1,0.5435308817283686,0.001,0.16900016367435455,1.0
929,1,929,1,-1,-1.7754741539445311,1.3281778167671028,1,0.5435308817283686,0.001,0.2110002487897873,1.0
930,1,930,1,1,0.024151057855914315,1.6023564872980052,1,0.5435308817283686,0.001,0.8029932379722595,1.0
931,1,931,1,-1,-1.387218354740844,1.3765007752104332,1,0.5435308817283686,0.001,0.33699920773506165,1.0
932,1,932,1,1,0.49529638737170467,1.660996013676378,1,0.5435308817283686,0.001,1.0999953746795654,1.0
933,1,933,-1,-1,0.8772194680147751,0.8980598546807189,1,0.5435308817283686,0.001,1.8240292072296143,1.0
934,1,934,-1,1,0.12311869526273755,0.8543975686044463,1,0.5435308817283686,0.001,0.25600025057792664,0.0
935,1,935,-1,-1,0.19480044320308965,0.8131248550115623,1,0.5435308817283686,0.001,0.3589989244937897,1.0
936,1,936,1,-1,-2.084187089470928,1.2897548945983743,1,0.5435308817283686,0.001,0.7019945383071899,1.0
937,1,937,-1,1,0.8671723313326749,0.9470037138549746,1,0.5435308817283686,0.001,1.7510257959365845,1.0
938,1,938,1,1,0.8868870884621343,1.70973403952016,1,0.5435308817283686,0.001,0.3569989502429962,1.0
939,1,939,1,-1,-2.538462650666361,1.2332150074659967,1,0.5435308817283686,0.001,0.45599767565727234,1.0
940,1,940,1,-1,0.21975308314000563,1.5765070962276677,1,0.5435308817283686,0.001,0.8429927229881287,1.0
941,1,941,1,-1,-0.46320467191296555,1.4915050453023155,1,0.5435308817283686,0.001,1.144997477531433,1.0
942,1,942,1,1,-0.47892919250916277,1.5397422878915508,1,0.5435308817283686,0.001,0.6829947829246521,1.0
943,1,943,-1,1,0.8230077242743179,0.9415069138691813,1,0.5435308817283686,0.001,0.37499871850013733,0.0
944,1,944,1,1,-0.36871835515192153,1.5534593108556423,1,0.5435308817283686,0.001,0.8149930834770203,1.0
945,1,945,1,-1,-0.8258327991859713,1.4463717492626003,1,0.5435308817283686,0.001,0.09100000560283661,1.0
946,1,946,-1,-1,-1.9929822304456657,0.5408298076778211,1,0.5435308817283686,0.001,0.837992787361145,1.0
947,1,947,-1,1,0.9190132873529495,0.9534559249193508,1,0.5435308817283686,0.001,0.22600027918815613,1.0
948,1,948,1,1,-0.08700211278085723,1.5885221799765392,1,0.5435308817283686,0.001,0.5559964179992676,1.0
949,1,949,1,-1,0.0461952894690798,1.5549058063865946,1,0.5435308817283686,0.001,0.3109995424747467,1.0
950,1,950,-1,1,0.31523807092606826,0.8783090636172156,1,0.5435308817283686,0.001,0.33399924635887146,1.0
951,1,951,-1,-1,-0.7059499202679265,0.7010159760943675,1,0.5435308817283686,0.001,0.7389940619468689,1.0
952,1,952,-1,1,0.3630940349501489,0.8842652959917073,1,0.5435308817283686,0.001,0.2859998643398285,1.0
953,1,953,1,1,1.6751591969062614,1.807843688922714,1,0.5435308817283686,0.001,0.34699907898902893,1.0
954,1,954,1,1,0.6442390338720089,1.679533661618883,1,0.5435308817283686,0.001,0.4029983580112457,1.0
955,1,955,-1,-1,0.574111204484199,0.8603344992514907,1,0.5435308817283686,0.001,0.8769922852516174,1.0
956,1,956,-1,1,1.5885303295836395,1.0367851225132345,1,0.5435308817283686,0.001,0.13700009882450104,1.0
957,1,957,-1,-1,-0.05133725776292708,0.7824901499549667,1,0.5435308817283686,0.001,0.3349992334842682,1.0
958,1,958,1,-1,-1.774385390159143,1.3283133261072435,1,0.5435308817283686,0.001,0.45299771428108215,1.0
959,1,959,-1,-1,-0.8667142786405295,0.6810069783543687,1,0.5435308817283686,0.001,0.8839921951293945,1.0
960,1,960,-1,1,2.5558391945434193,1.1571779825276556,1,0.5435308817283686,0.001,0.34099915623664856,1.0
961,1,961,1,1,0.9513257126381878,1.717754177183503,1,0.5435308817283686,0.001,1.4480116367340088,1.0
962,1,962,-1,1,1.2561285807219615,0.9954138514860463,1,0.5435308817283686,0.001,1.126996636390686,1.0
963,1,963,-1,-1,-1.2742590019586482,0.6302832885367484,1,0.5435308817283686,0.001,1.6730221509933472,1.0
964,1,964,1,-1,-1.097722083804338,1.4125319595447203,1,0.5435308817283686,0.001,2.3290135860443115,1.0
965,1,965,1,1,0.809316605429789,1.7000794890004018,1,0.5435308817283686,0.001,0.7849934697151184,1.0
966,1,966,1,1,2.498092610612016,1.9102673416632336,1,0.5435308817283686,0.001,0.23900030553340912,1.0
