,subj_idx,trial_idx,S,X,M,v,a,z,t,rt,response
0,1,0,-1,1,0.7858143069645172,-1.6776931027545015,1.3325322494857672,0.6148814223184759,1.374863107692906,2.093857526779175,0.0
1,1,1,-1,1,-0.6696402494058433,-1.3433398002138226,1.3325322494857672,0.5958806687762344,1.374863107692906,2.5258607864379883,0.0
2,1,2,-1,1,-0.15703420718334304,-1.4610978726793888,1.3325322494857672,0.6025726682137318,1.374863107692906,2.129857063293457,0.0
3,1,3,1,-1,1.0882519438928069,-1.2096598920207338,1.3325322494857672,0.6188297029267713,1.374863107692906,2.5048599243164062,0.0
4,1,4,-1,-1,-2.163206104507732,-1.0002314056373067,1.3325322494857672,0.5763823776151074,1.374863107692906,2.5258607864379883,0.0
5,1,5,-1,1,-0.871788002938609,-1.2969015457873747,1.3325322494857672,0.5932416584222646,1.374863107692906,2.396854877471924,0.0
6,1,6,-1,-1,-1.4404466379868015,-1.166266829770686,1.3325322494857672,0.5858179003070241,1.374863107692906,3.6088836193084717,0.0
7,1,7,-1,-1,1.9157224771552535,-1.9372604843793213,1.3325322494857672,0.6296322137967748,1.374863107692906,2.914879083633423,0.0
8,1,8,1,-1,-1.0618314957274206,-0.7157334443494163,1.3325322494857672,0.5907606674816803,1.374863107692906,2.5918641090393066,0.0
9,1,9,1,-1,0.33817206973250974,-1.037348305927506,1.3325322494857672,0.6090375161741616,1.374863107692906,2.961881160736084,0.0
10,1,10,-1,-1,-0.9209275558046686,-1.2856129956129794,1.3325322494857672,0.5926001485042137,1.374863107692906,1.9378595352172852,0.0
11,1,11,-1,1,0.205151141235966,-1.5443006541374638,1.3325322494857672,0.6073009467517358,1.374863107692906,2.0728578567504883,0.0
12,1,12,-1,-1,0.33377006489250904,-1.5738475484087884,1.3325322494857672,0.6089800486230859,1.374863107692906,2.088857650756836,0.0
13,1,13,1,-1,-0.6310055452882873,-0.8147046411614837,1.3325322494857672,0.5963850393784644,1.374863107692906,1.6508631706237793,0.0
14,1,14,1,-1,1.074369586406646,-1.2064707769417145,1.3325322494857672,0.6186484707117047,1.374863107692906,3.9548585414886475,0.0
15,1,15,-1,1,0.09745911847639757,-1.5195611778622697,1.3325322494857672,0.6058950426141152,1.374863107692906,2.1138572692871094,0.0
16,1,16,1,-1,-0.7246328672722812,-0.7931961686527604,1.3325322494857672,0.5951627479217841,1.374863107692906,3.186891794204712,0.0
17,1,17,-1,1,2.676039131328135,-2.111923707759752,1.3325322494857672,0.6395580402657426,1.374863107692906,2.127856969833374,0.0
18,1,18,1,1,0.3406932743499959,-1.0379274879339435,1.3325322494857672,0.6090704301441353,1.374863107692906,1.8558604717254639,0.0
19,1,19,1,-1,0.9826612746938992,-1.1854031477550946,1.3325322494857672,0.6174512316629126,1.374863107692906,2.8908779621124268,0.0
20,1,20,1,-1,1.0174216402374772,-1.1933884489561162,1.3325322494857672,0.6179050233225979,1.374863107692906,2.2818551063537598,0.0
21,1,21,1,1,0.36197061190221724,-1.0428154097510283,1.3325322494857672,0.6093482027788736,1.374863107692906,2.5068600177764893,0.0
22,1,22,1,1,0.9543748108248936,-1.1789050591886021,1.3325322494857672,0.617081955874669,1.374863107692906,2.0688576698303223,0.0
23,1,23,1,-1,-0.36970037304644315,-0.8747327931416472,1.3325322494857672,0.5997963414732973,1.374863107692906,5.2567644119262695,1.0
24,1,24,1,-1,-0.9244147335916574,-0.7473014160483196,1.3325322494857672,0.5925546238910276,1.374863107692906,1.762861728668213,1.0
25,1,25,1,-1,1.453367101908301,-1.2935357219845227,1.3325322494857672,0.6235962297150002,1.374863107692906,2.8558764457702637,0.0
26,1,26,-1,1,-0.41145449168559456,-1.4026513468264576,1.3325322494857672,0.5992512473553371,1.374863107692906,1.8558604717254639,0.0
27,1,27,-1,1,-0.9451799090338173,-1.2800416403541997,1.3325322494857672,0.5922835374602553,1.374863107692906,1.8168610334396362,0.0
28,1,28,-1,1,0.3655378560657315,-1.5811453825092758,1.3325322494857672,0.6093947726472898,1.374863107692906,1.806861162185669,0.0
29,1,29,1,-1,-1.4012297893104328,-0.6377654034789773,1.3325322494857672,0.5863298707241983,1.374863107692906,1.8408607244491577,0.0
30,1,30,-1,1,0.09655911263084677,-1.5193544246349369,1.3325322494857672,0.6058832931649942,1.374863107692906,3.169890880584717,0.0
31,1,31,-1,-1,-0.6090288905344078,-1.35726370317695,1.3325322494857672,0.5966719415004399,1.374863107692906,2.388854503631592,0.0
32,1,32,-1,1,-0.8644570167119783,-1.298585651584444,1.3325322494857672,0.5933373634114064,1.374863107692906,2.6008644104003906,0.0
33,1,33,1,-1,-0.07106036993748238,-0.9433376636085415,1.3325322494857672,0.6036950445087796,1.374863107692906,2.2858550548553467,0.0
34,1,34,-1,-1,0.9063975624143348,-1.705394008642829,1.3325322494857672,0.6164556196770227,1.374863107692906,2.0248584747314453,0.0
35,1,35,-1,1,1.1000694752694962,-1.749885156366452,1.3325322494857672,0.618983979128789,1.374863107692906,1.7798614501953125,0.0
36,1,36,1,-1,0.07128758864205105,-0.9760384510379222,1.3325322494857672,0.6055533769908023,1.374863107692906,2.1908562183380127,0.0
37,1,37,-1,1,-0.5637158358336518,-1.3676732136773582,1.3325322494857672,0.5972634970257201,1.374863107692906,2.1478567123413086,0.0
38,1,38,1,-1,-1.0458036973475338,-0.7194154193704266,1.3325322494857672,0.5909699081244115,1.374863107692906,2.8788774013519287,0.0
39,1,39,1,-1,0.3923529735729381,-1.049794977006583,1.3325322494857672,0.6097448402167172,1.374863107692906,2.0638577938079834,0.0
40,1,40,1,-1,-0.04502083566134619,-0.9493195778110429,1.3325322494857672,0.6040349869487343,1.374863107692906,4.617810249328613,0.0
41,1,41,1,1,-0.39778348242178097,-0.8682814200471334,1.3325322494857672,0.5994297204492296,1.374863107692906,3.4808928966522217,0.0
42,1,42,1,1,1.9273668157624937,-1.402424982069506,1.3325322494857672,0.6297842289916638,1.374863107692906,5.479748249053955,0.0
43,1,43,-1,-1,0.9945412633492952,-1.7256427600564475,1.3325322494857672,0.617606323235877,1.374863107692906,1.9038598537445068,1.0
44,1,44,1,1,-0.8686937432760984,-0.7601018824395929,1.3325322494857672,0.5932820535448644,1.374863107692906,3.211893081665039,0.0
45,1,45,-1,-1,-0.06837734920617858,-1.481464508743567,1.3325322494857672,0.6037300709652507,1.374863107692906,1.8808602094650269,0.0
46,1,46,1,1,1.876364645060128,-1.3907085432865558,1.3325322494857672,0.6291184028609931,1.374863107692906,2.1528568267822266,0.0
47,1,47,1,-1,-1.429020617854609,-0.6313811743985039,1.3325322494857672,0.585967065385075,1.374863107692906,2.2898550033569336,0.0
48,1,48,-1,-1,0.26327428620120497,-1.5576529538627415,1.3325322494857672,0.6080597361950412,1.374863107692906,1.6728628873825073,0.0
49,1,49,-1,1,-1.7294034084453316,-1.0998864333018088,1.3325322494857672,0.5820456105053167,1.374863107692906,1.897860050201416,0.0
50,1,50,1,-1,-0.6030855001734706,-0.821118554430273,1.3325322494857672,0.5967495316216561,1.374863107692906,2.914879083633423,0.0
51,1,51,-1,1,0.6184183756979605,-1.6392381869305246,1.3325322494857672,0.6126960920929126,1.374863107692906,1.7348620891571045,0.0
52,1,52,-1,-1,0.8645236201513536,-1.6957745458950941,1.3325322494857672,0.6159089612785873,1.374863107692906,2.910878896713257,0.0
53,1,53,-1,1,1.8807691571241005,-1.9292308568406078,1.3325322494857672,0.6291759031435235,1.374863107692906,2.0928573608398438,0.0
54,1,54,-1,-1,-2.0898158236449484,-1.0170909377150745,1.3325322494857672,0.577340477359937,1.374863107692906,2.5288610458374023,0.0
55,1,55,-1,1,-0.059382539150763566,-1.4835308353317733,1.3325322494857672,0.6038474969393384,1.374863107692906,2.423856258392334,0.0
56,1,56,1,-1,-0.5133035144631093,-0.8417436596934569,1.3325322494857672,0.5979216227567238,1.374863107692906,2.308854579925537,0.0
57,1,57,-1,1,-1.7694141527960148,-1.0906949924201894,1.3325322494857672,0.581523275892311,1.374863107692906,1.7238621711730957,0.0
58,1,58,-1,1,-1.875757082262277,-1.0662654356791217,1.3325322494857672,0.5801349839769747,1.374863107692906,3.7438738346099854,0.0
59,1,59,1,-1,-0.6204050629898946,-0.817139829707549,1.3325322494857672,0.5965234271767637,1.374863107692906,1.9338595867156982,0.0
60,1,60,-1,-1,0.14210677657271298,-1.529817830582804,1.3325322494857672,0.6064779114807611,1.374863107692906,2.1998560428619385,0.0
61,1,61,1,1,0.7800739937821883,-1.1388639232021225,1.3325322494857672,0.6148064833411266,1.374863107692906,2.5228607654571533,0.0
62,1,62,-1,-1,0.3411957676358966,-1.5755534128928905,1.3325322494857672,0.6090769901229681,1.374863107692906,1.938859462738037,0.0
63,1,63,1,1,-0.8595313274801598,-0.7622067121419113,1.3325322494857672,0.5934016675882079,1.374863107692906,3.1048879623413086,0.0
64,1,64,1,1,-0.4194050595406481,-0.863314418031035,1.3325322494857672,0.5991474538155982,1.374863107692906,4.108847618103027,0.0
65,1,65,-1,1,0.6852312939800063,-1.6545867388878541,1.3325322494857672,0.6135683252987923,1.374863107692906,2.8418755531311035,0.0
66,1,66,-1,-1,-1.7558620132645715,-1.0938082484054055,1.3325322494857672,0.5817001971586466,1.374863107692906,2.1578567028045654,0.0
67,1,67,-1,-1,0.2017265820667054,-1.5435139496244463,1.3325322494857672,0.6072562396157548,1.374863107692906,3.8428666591644287,0.0
68,1,68,1,1,0.7991836821786767,-1.1432538832994155,1.3325322494857672,0.6150559576224784,1.374863107692906,3.0318846702575684,0.0
69,1,69,-1,1,0.10399324839120253,-1.5210622263880946,1.3325322494857672,0.6059803447567212,1.374863107692906,2.7888731956481934,0.0
70,1,70,1,-1,-1.8920403232074545,-0.5250142892569922,1.3325322494857672,0.5799224085676539,1.374863107692906,1.6998624801635742,1.0
71,1,71,-1,-1,0.19072414386908304,-1.5409864220343383,1.3325322494857672,0.6071126043399973,1.374863107692906,4.051851272583008,1.0
72,1,72,1,1,0.2759180455025759,-1.023047042788357,1.3325322494857672,0.6082247986858496,1.374863107692906,1.8618603944778442,0.0
73,1,73,-1,1,1.2644555231155479,-1.7876486287801872,1.3325322494857672,0.6211300157516674,1.374863107692906,2.730870485305786,0.0
74,1,74,-1,-1,-0.2155025001963396,-1.4476662840548953,1.3325322494857672,0.6018093729114409,1.374863107692906,1.8868601322174072,0.0
75,1,75,1,1,2.90909178759845,-1.627951079798442,1.3325322494857672,0.6426005097573356,1.374863107692906,2.5688629150390625,0.0
76,1,76,1,-1,0.9314213703316516,-1.17363209576972,1.3325322494857672,0.6167823019529098,1.374863107692906,1.7348620891571045,0.0
77,1,77,-1,-1,-1.1514397293390632,-1.2326587442007884,1.3325322494857672,0.589590844655706,1.374863107692906,2.0078585147857666,0.0
78,1,78,-1,-1,-0.39575965428790516,-1.406256832613553,1.3325322494857672,0.5994561412395011,1.374863107692906,2.8138742446899414,0.0
79,1,79,1,-1,0.1989321207415517,-1.0053615038752157,1.3325322494857672,0.6072197583180804,1.374863107692906,2.089857578277588,0.0
80,1,80,-1,-1,-0.6543514180886808,-1.3468520165317464,1.3325322494857672,0.5960802623083957,1.374863107692906,1.9278595447540283,1.0
81,1,81,1,-1,-0.038727894974635024,-0.9507652193063993,1.3325322494857672,0.6041171404000535,1.374863107692906,3.7628724575042725,0.0
82,1,82,1,-1,0.8002081331733814,-1.1434892246035264,1.3325322494857672,0.6150693316854344,1.374863107692906,1.8838601112365723,0.0
83,1,83,-1,-1,-0.6124569389651119,-1.356476197095734,1.3325322494857672,0.5966271888126438,1.374863107692906,4.166843414306641,0.0
84,1,84,1,-1,0.16893903232088509,-0.9984713621507959,1.3325322494857672,0.6068282027875024,1.374863107692906,2.5478620529174805,0.0
85,1,85,1,1,0.5398121291159402,-1.0836699306627222,1.3325322494857672,0.6116698986527613,1.374863107692906,3.1228888034820557,0.0
86,1,86,1,1,0.03397350120515123,-0.9674664978215111,1.3325322494857672,0.6050662468527028,1.374863107692906,4.7418012619018555,0.0
87,1,87,-1,-1,0.07757754927197798,-1.5149938979742832,1.3325322494857672,0.6056354915379013,1.374863107692906,2.5648627281188965,0.0
88,1,88,-1,1,-0.20993776548577886,-1.4489446389304186,1.3325322494857672,0.6018820197366547,1.374863107692906,1.8638603687286377,0.0
89,1,89,1,1,-0.7717911399365049,-0.782362766717685,1.3325322494857672,0.5945471033367651,1.374863107692906,1.8488606214523315,0.0
90,1,90,1,-1,-0.2804397731606008,-0.8952381234028822,1.3325322494857672,0.6009616259901105,1.374863107692906,2.9998831748962402,0.0
91,1,91,-1,-1,-0.4306808064267393,-1.3982345948219022,1.3325322494857672,0.5990002505335379,1.374863107692906,3.0428850650787354,0.0
92,1,92,1,-1,-0.847091245975645,-0.7650645013574554,1.3325322494857672,0.5935640710941629,1.374863107692906,2.395854949951172,0.0
93,1,93,-1,-1,1.3932440083403388,-1.81723447546681,1.3325322494857672,0.6228113312253277,1.374863107692906,2.317854642868042,0.0
94,1,94,-1,-1,0.986605331758655,-1.7238196835993682,1.3325322494857672,0.6175027207705017,1.374863107692906,2.001858711242676,0.0
95,1,95,1,-1,-1.756951005552185,-0.5560475903644111,1.3325322494857672,0.5816859805182331,1.374863107692906,3.902862310409546,0.0
96,1,96,1,1,1.7173016155523846,-1.354167897620044,1.3325322494857672,0.6270418574902493,1.374863107692906,2.5908639430999756,0.0
97,1,97,-1,-1,-1.7023565550436661,-1.1060997532014918,1.3325322494857672,0.5823987033540963,1.374863107692906,1.7908613681793213,0.0
98,1,98,-1,1,-0.030629749801116643,-1.4901360502003744,1.3325322494857672,0.6042228605408286,1.374863107692906,3.3598999977111816,0.0
99,1,99,-1,1,-0.11187818195956246,-1.4714713096905951,1.3325322494857672,0.6031621737413823,1.374863107692906,2.689868450164795,0.0
100,1,100,1,-1,-1.303362725123615,-0.6602478478655793,1.3325322494857672,0.5876075114161577,1.374863107692906,2.731870651245117,0.0
101,1,101,1,-1,-1.3789895621833645,-0.6428745244450996,1.3325322494857672,0.5866202137462565,1.374863107692906,4.197840690612793,0.0
102,1,102,-1,-1,-1.0598850234724257,-1.2536910863894655,1.3325322494857672,0.5907860784018854,1.374863107692906,2.0178585052490234,0.0
103,1,103,-1,1,-2.2675518241804764,-0.9762606565501134,1.3325322494857672,0.575020158991371,1.374863107692906,2.749871253967285,0.0
104,1,104,1,1,0.06173253310252334,-0.9738434224390439,1.3325322494857672,0.6054286370910957,1.374863107692906,3.645880937576294,0.0
105,1,105,-1,-1,-0.11781522279147505,-1.4701074270459737,1.3325322494857672,0.60308466651237,1.374863107692906,4.297833442687988,0.0
106,1,106,-1,-1,-1.6546827709607979,-1.1170515806446444,1.3325322494857672,0.5830210778678315,1.374863107692906,3.582885503768921,0.0
107,1,107,-1,-1,0.24999817003879832,-1.5546031071571982,1.3325322494857672,0.6078864183747795,1.374863107692906,1.6808627843856812,0.0
108,1,108,-1,1,0.8568956428818321,-1.6940222140338164,1.3325322494857672,0.6158093791133527,1.374863107692906,2.428856372833252,0.0
109,1,109,-1,1,-2.8330776157809097,-0.8463456308518317,1.3325322494857672,0.567637299704594,1.374863107692906,3.4208972454071045,0.0
110,1,110,-1,1,0.002745568900944434,-1.4978031724629965,1.3325322494857672,0.6046585706097387,1.374863107692906,4.050851821899414,0.0
111,1,111,-1,-1,1.2622848358317162,-1.7871499691284958,1.3325322494857672,0.6211016777359479,1.374863107692906,1.7058624029159546,0.0
112,1,112,1,1,0.09633726635302947,-0.9817929711179803,1.3325322494857672,0.6058803969931896,1.374863107692906,3.6558802127838135,0.0
113,1,113,-1,-1,-0.699262494934108,-1.336534850119231,1.3325322494857672,0.5954939545472075,1.374863107692906,2.951880931854248,0.0
114,1,114,-1,-1,0.7820586899352427,-1.676830346201011,1.3325322494857672,0.6148323932689188,1.374863107692906,2.676867961883545,0.0
115,1,115,1,1,-0.7607009040773902,-0.7849104635655325,1.3325322494857672,0.5946918847985854,1.374863107692906,2.0638577938079834,0.0
116,1,116,1,1,-0.11836682066851183,-0.9324702215684118,1.3325322494857672,0.6030774654800396,1.374863107692906,1.8368607759475708,0.0
117,1,117,1,-1,1.1058145216177035,-1.2136944431771028,1.3325322494857672,0.6190589798969499,1.374863107692906,3.3278985023498535,0.0
118,1,118,1,-1,-2.069600323384299,-0.4842244396540587,1.3325322494857672,0.5776043878588973,1.374863107692906,9.839653015136719,0.0
119,1,119,-1,-1,0.5707493043724329,-1.628287442122329,1.3325322494857672,0.6120737791035585,1.374863107692906,1.9588592052459717,0.0
120,1,120,1,1,1.2695287415064933,-1.2513035803728358,1.3325322494857672,0.6211962459007919,1.374863107692906,1.7888613939285278,0.0
121,1,121,1,1,1.943261750418448,-1.4060764350624049,1.3325322494857672,0.6299917351172558,1.374863107692906,2.8948781490325928,0.0
122,1,122,1,1,0.2091235634052554,-1.0077027260709546,1.3325322494857672,0.6073528061617559,1.374863107692906,3.584885358810425,0.0
123,1,123,-1,1,0.2755086901480972,-1.5604634939420288,1.3325322494857672,0.6082194546095486,1.374863107692906,2.5108602046966553,0.0
124,1,124,-1,-1,0.450473624861489,-1.6006571939062004,1.3325322494857672,0.6105035971054258,1.374863107692906,1.9798588752746582,0.0
125,1,125,1,1,0.518792677903546,-1.0788412516086794,1.3325322494857672,0.6113954926877438,1.374863107692906,2.757871627807617,0.0
126,1,126,-1,1,-0.9247317008585694,-1.2847390909922212,1.3325322494857672,0.5925504859281534,1.374863107692906,2.6258654594421387,0.0
127,1,127,1,1,0.04780865413763748,-0.970644768866722,1.3325322494857672,0.6052468628189924,1.374863107692906,2.375854015350342,0.0
128,1,128,1,-1,0.39866816991209864,-1.0512457311664773,1.3325322494857672,0.6098272842124339,1.374863107692906,1.8018611669540405,1.0
129,1,129,-1,-1,1.0297381603314384,-1.7337283431436388,1.3325322494857672,0.6180658137518003,1.374863107692906,2.5368614196777344,0.0
130,1,130,-1,-1,-0.3303920416015663,-1.4212733627313892,1.3325322494857672,0.6003095061850857,1.374863107692906,1.7708616256713867,0.0
131,1,131,-1,1,0.7515795159864147,-1.6698285388110803,1.3325322494857672,0.6144344919604664,1.374863107692906,1.8778603076934814,0.0
132,1,132,-1,1,-0.17978658911554773,-1.455871097300932,1.3325322494857672,0.6022756390830726,1.374863107692906,2.0628578662872314,0.0
133,1,133,-1,1,-2.035088363836444,-1.029663165990115,1.3325322494857672,0.5780549366134142,1.374863107692906,2.357854127883911,0.0
134,1,134,-1,-1,0.5410340204548056,-1.6214611188473724,1.3325322494857672,0.6116858502715072,1.374863107692906,2.458857774734497,0.0
135,1,135,1,1,-2.165773558039212,-0.4621311090982214,1.3325322494857672,0.5763488598720976,1.374863107692906,1.8908600807189941,0.0
136,1,136,1,-1,-0.36130555920630675,-0.876661286009651,1.3325322494857672,0.5999059345815887,1.374863107692906,2.2018561363220215,1.0
137,1,137,1,-1,-0.9882246320038789,-0.7326427307767456,1.3325322494857672,0.5917215946851487,1.374863107692906,3.228893756866455,1.0
138,1,138,-1,-1,0.051399651460457704,-1.5089801983032458,1.3325322494857672,0.6052937427815465,1.374863107692906,1.8268609046936035,0.0
139,1,139,1,-1,-1.856734305342866,-0.5331249400642728,1.3325322494857672,0.580383323641276,1.374863107692906,4.926788330078125,0.0
140,1,140,1,-1,-0.10496456002007576,-0.935549046729735,1.3325322494857672,0.6032524300987391,1.374863107692906,2.086857557296753,0.0
141,1,141,-1,-1,-2.0779097259688553,-1.0198260578608394,1.3325322494857672,0.5774959097824769,1.374863107692906,2.7878732681274414,0.0
142,1,142,-1,1,0.9200223944979465,-1.7085239638748757,1.3325322494857672,0.6166334899343536,1.374863107692906,2.454857587814331,0.0
143,1,143,-1,1,0.14806860581458745,-1.5311874077279506,1.3325322494857672,0.6065557423189621,1.374863107692906,2.0928573608398438,1.0
144,1,144,-1,-1,0.7525637456105291,-1.670054640288341,1.3325322494857672,0.6144473409391137,1.374863107692906,1.7948613166809082,0.0
145,1,145,1,1,-0.697988025444665,-0.7993171367185408,1.3325322494857672,0.5955105925662787,1.374863107692906,2.438856840133667,0.0
146,1,146,-1,1,1.139825154087606,-1.7590180024930464,1.3325322494857672,0.6195029838973138,1.374863107692906,2.2838549613952637,0.0
147,1,147,-1,-1,-1.2944048281971603,-1.1998161846429922,1.3325322494857672,0.5877244554945636,1.374863107692906,2.1118571758270264,0.0
148,1,148,1,-1,-1.1000072531316736,-0.7069635445890725,1.3325322494857672,0.590262288363932,1.374863107692906,3.017883777618408,0.0
149,1,149,1,-1,0.3852939180348628,-1.048173340300962,1.3325322494857672,0.6096526852442841,1.374863107692906,3.6718790531158447,0.0
150,1,150,1,1,-0.8444827187399254,-0.7656637434926445,1.3325322494857672,0.5935981250485768,1.374863107692906,2.665867328643799,0.0
151,1,151,-1,-1,0.09968072149105021,-1.5200715340954014,1.3325322494857672,0.6059240453275049,1.374863107692906,2.7478713989257812,0.0
152,1,152,1,1,-0.49636251778166174,-0.8456354185697342,1.3325322494857672,0.5981427850742247,1.374863107692906,1.872860312461853,0.0
153,1,153,-1,1,-0.8014599582680586,-1.3130576077502214,1.3325322494857672,0.5941597811063732,1.374863107692906,2.910878896713257,0.0
154,1,154,-1,-1,-0.5985288429951676,-1.359675819416659,1.3325322494857672,0.5968090181371523,1.374863107692906,3.537888765335083,0.0
155,1,155,1,1,0.8255316325476679,-1.1493066481779146,1.3325322494857672,0.6153999263909385,1.374863107692906,2.2458555698394775,1.0
156,1,156,-1,1,-1.335255479415358,-1.1904317967306661,1.3325322494857672,0.5871911560161018,1.374863107692906,1.9058599472045898,0.0
157,1,157,-1,-1,0.4946678527445094,-1.6108096826810978,1.3325322494857672,0.611080546504718,1.374863107692906,2.2078559398651123,0.0
158,1,158,1,1,-0.9905727836704659,-0.7321033032410982,1.3325322494857672,0.5916909398969925,1.374863107692906,3.013883590698242,0.0
159,1,159,1,1,0.7982021750525296,-1.1430284072461383,1.3325322494857672,0.6150431441856574,1.374863107692906,2.418855905532837,0.0
160,1,160,1,1,-0.46650196230606855,-0.8524951142539897,1.3325322494857672,0.598532610405935,1.374863107692906,4.305832862854004,0.0
161,1,161,1,-1,0.3396126413249289,-1.0376792402513317,1.3325322494857672,0.6090563226327128,1.374863107692906,1.897860050201416,0.0
162,1,162,1,1,0.4532499965893853,-1.0637845039700506,1.3325322494857672,0.6105398422459646,1.374863107692906,2.312854766845703,0.0
163,1,163,-1,-1,-0.7319439269305971,-1.3290271305054802,1.3325322494857672,0.5950673030711756,1.374863107692906,2.222855806350708,0.0
164,1,164,1,-1,0.21788119158417302,-1.009714566214797,1.3325322494857672,0.6074671357599656,1.374863107692906,1.6728628873825073,1.0
165,1,165,-1,1,1.288279042882327,-1.793121470565114,1.3325322494857672,0.6214410284353792,1.374863107692906,1.8148610591888428,0.0
166,1,166,-1,1,-0.5251835424855831,-1.3765250184135513,1.3325322494857672,0.5977665306698277,1.374863107692906,4.01185417175293,0.0
167,1,167,-1,1,-0.8431248913333186,-1.3034861594974865,1.3325322494857672,0.5936158512934759,1.374863107692906,2.0638577938079834,0.0
168,1,168,1,1,1.7468396602510212,-1.3609535047366363,1.3325322494857672,0.6274274724893449,1.374863107692906,1.9588592052459717,0.0
169,1,169,-1,1,0.06333950731284844,-1.5117230735229725,1.3325322494857672,0.605449615912307,1.374863107692906,2.470858335494995,0.0
170,1,170,1,-1,-0.05756745319677282,-0.9464373146786603,1.3325322494857672,0.6038711926299518,1.374863107692906,2.2408556938171387,0.0
171,1,171,1,-1,-0.07273573007903003,-0.9429527926458449,1.3325322494857672,0.6036731729189009,1.374863107692906,4.474821090698242,0.0
172,1,172,-1,-1,-0.26276746326536704,-1.4368083727395446,1.3325322494857672,0.601192335498265,1.374863107692906,1.821860909461975,0.0
173,1,173,-1,1,-1.3054983616559,-1.1972677302563262,1.3325322494857672,0.5875796309830462,1.374863107692906,2.22985577583313,0.0
174,1,174,-1,-1,-0.1979457789292351,-1.4516994898405033,1.3325322494857672,0.6020385734263907,1.374863107692906,1.9158596992492676,0.0
175,1,175,-1,1,-1.601180656437342,-1.1293423173121209,1.3325322494857672,0.5837195404117834,1.374863107692906,3.3268983364105225,0.0
176,1,176,-1,-1,-0.9328250847243661,-1.2828798439189173,1.3325322494857672,0.5924448279455776,1.374863107692906,3.1248888969421387,0.0
177,1,177,-1,1,1.0435439406016196,-1.7368998665740902,1.3325322494857672,0.6182460462621345,1.374863107692906,2.7848730087280273,0.0
178,1,178,-1,-1,0.09595626140206952,-1.5192159350487109,1.3325322494857672,0.6058754230274,1.374863107692906,3.0168838500976562,0.0
179,1,179,1,-1,-1.6711189630871364,-0.5757652976170299,1.3325322494857672,0.5828065057024563,1.374863107692906,2.497859477996826,1.0
180,1,180,1,-1,-0.9755510449268351,-0.7355541619002387,1.3325322494857672,0.5918870465733531,1.374863107692906,2.496859550476074,0.0
181,1,181,1,1,0.16288909267409196,-0.9970815439031402,1.3325322494857672,0.6067492216804172,1.374863107692906,2.6258654594421387,0.0
182,1,182,-1,1,0.3884802850854515,-1.5864158163249342,1.3325322494857672,0.6096942828158183,1.374863107692906,2.225855827331543,0.0
183,1,183,1,-1,1.331001848639486,-1.2654254478659785,1.3325322494857672,0.6219987686267661,1.374863107692906,1.7218621969223022,1.0
184,1,184,1,1,0.5284785411123832,-1.0810663299099272,1.3325322494857672,0.6115219402630869,1.374863107692906,2.3748538494110107,0.0
185,1,185,-1,1,-1.2498464977207249,-1.2100523166371429,1.3325322494857672,0.5883061582017562,1.374863107692906,1.9328595399856567,0.0
186,1,186,1,-1,-1.1868949339922001,-0.68700333152803,1.3325322494857672,0.5891279819696431,1.374863107692906,1.9038598537445068,0.0
187,1,187,1,1,1.1378860021242656,-1.221062042101991,1.3325322494857672,0.6194776685424819,1.374863107692906,2.416855812072754,0.0
188,1,188,-1,-1,-1.3758905420156091,-1.1810969347661515,1.3325322494857672,0.5866606710165795,1.374863107692906,2.914879083633423,0.0
189,1,189,-1,1,0.47606686632278017,-1.6065365837970425,1.3325322494857672,0.6108377132557546,1.374863107692906,2.174856424331665,0.0
190,1,190,1,1,-1.7632203814936993,-0.5546073622640286,1.3325322494857672,0.581604134701332,1.374863107692906,3.147890090942383,0.0
191,1,191,-1,-1,0.7892226248424942,-1.6784760762479864,1.3325322494857672,0.6149259174266946,1.374863107692906,1.6708629131317139,0.0
192,1,192,-1,1,-1.1938106344555128,-1.222925117001426,1.3325322494857672,0.5890376984774515,1.374863107692906,2.5228607654571533,0.0
193,1,193,1,-1,0.6422660079083241,-1.1072060778975517,1.3325322494857672,0.6130074195611678,1.374863107692906,4.0208539962768555,0.0
194,1,194,-1,-1,-0.8404665623486095,-1.3040968423054018,1.3325322494857672,0.5936505554026847,1.374863107692906,2.325854539871216,0.0
195,1,195,1,-1,-1.2883938253507004,-0.66368656812831,1.3325322494857672,0.587802928287223,1.374863107692906,2.363853931427002,0.0
196,1,196,-1,-1,0.2854279542763405,-1.5627421901098586,1.3325322494857672,0.6083489492009093,1.374863107692906,3.6998770236968994,0.0
197,1,197,-1,-1,-1.3175710138972365,-1.1944943484769717,1.3325322494857672,0.5874220242141953,1.374863107692906,2.3828542232513428,0.0
198,1,198,-1,-1,-0.06063932972581994,-1.4832421199764687,1.3325322494857672,0.6038310897159961,1.374863107692906,3.0388848781585693,0.0
199,1,199,-1,-1,-0.7441901568766086,-1.3262138737066334,1.3325322494857672,0.594907430269921,1.374863107692906,2.0548579692840576,0.0
200,1,200,1,-1,-0.026040118163434156,-0.9536799101568669,1.3325322494857672,0.6042827775332319,1.374863107692906,2.1958560943603516,0.0
201,1,201,1,-1,0.3027679147301019,-1.0292151106333582,1.3325322494857672,0.6085753199340744,1.374863107692906,2.940880298614502,0.0
202,1,202,1,1,-0.6170379771034169,-0.8179133312099864,1.3325322494857672,0.5965673840071605,1.374863107692906,1.9668591022491455,1.0
203,1,203,1,-1,0.11574469033365643,-0.9862513283187108,1.3325322494857672,0.6061337581705151,1.374863107692906,1.9968587160110474,0.0
204,1,204,-1,1,-1.1893955767824418,-1.2239393631058046,1.3325322494857672,0.5890953364314182,1.374863107692906,1.8438606262207031,0.0
205,1,205,1,1,-1.2710525946996452,-0.6676702704795254,1.3325322494857672,0.5880293156026344,1.374863107692906,6.18369722366333,0.0
206,1,206,-1,-1,-0.8883488089091335,-1.2930971259621424,1.3325322494857672,0.5930254594407646,1.374863107692906,1.7788615226745605,0.0
207,1,207,-1,1,2.0207836965038593,-1.9613956011402036,1.3325322494857672,0.631003773167662,1.374863107692906,2.4998598098754883,0.0
208,1,208,-1,-1,-0.09145469180996242,-1.4761630819970801,1.3325322494857672,0.6034287995189487,1.374863107692906,2.0948574542999268,0.0
209,1,209,1,-1,0.9508393420922812,-1.1780928760519975,1.3325322494857672,0.6170358008300125,1.374863107692906,1.897860050201416,0.0
210,1,210,-1,1,-0.12250627348454794,-1.4690297786338335,1.3325322494857672,0.6030234255085317,1.374863107692906,1.7728615999221802,0.0
211,1,211,1,1,0.1863310400151178,-1.0024667292235276,1.3325322494857672,0.6070552529900364,1.374863107692906,5.979712009429932,0.0
212,1,212,1,1,-0.8766717487989605,-0.7582691405772094,1.3325322494857672,0.5931779018102499,1.374863107692906,3.5498878955841064,0.0
213,1,213,1,1,-0.3183673802969829,-0.8865252297931089,1.3325322494857672,0.6004664864390395,1.374863107692906,4.946786880493164,0.0
214,1,214,-1,1,0.45420063196322824,-1.6015133780636548,1.3325322494857672,0.6105522526564221,1.374863107692906,2.987882614135742,0.0
215,1,215,-1,1,1.0864822890812096,-1.7467638493119617,1.3325322494857672,0.6188066003333013,1.374863107692906,1.9608591794967651,0.0
216,1,216,1,-1,-1.8428685113589514,-0.5363102501040669,1.3325322494857672,0.5805643396221616,1.374863107692906,3.877864122390747,0.0
217,1,217,1,1,0.30224066326766064,-1.0290939881517494,1.3325322494857672,0.6085684367407458,1.374863107692906,2.940880298614502,0.0
218,1,218,1,1,-1.0298231482757205,-0.7230865400764548,1.3325322494857672,0.5911785319341033,1.374863107692906,3.7578728199005127,0.0
219,1,219,-1,-1,0.39070629011007074,-1.5869271838067949,1.3325322494857672,0.609723342996826,1.374863107692906,3.875864267349243,0.0
220,1,220,-1,-1,0.09239365645304344,-1.5183975180633498,1.3325322494857672,0.6058289137232734,1.374863107692906,2.991882801055908,0.0
221,1,221,1,-1,0.44466281923450635,-1.061811820525185,1.3325322494857672,0.6104277378591739,1.374863107692906,2.077857732772827,0.0
222,1,222,-1,1,-0.6192652904785602,-1.3549121532007078,1.3325322494857672,0.5965383067458215,1.374863107692906,2.7958736419677734,0.0
223,1,223,-1,1,-0.25418334345499355,-1.43878035379209,1.3325322494857672,0.6013043999692442,1.374863107692906,2.1468567848205566,0.0
224,1,224,1,1,1.284127145921487,-1.254657188842859,1.3325322494857672,0.6213868260073195,1.374863107692906,3.0918874740600586,0.0
225,1,225,-1,1,-0.411326261972641,-1.4026808043095664,1.3325322494857672,0.5992529213761176,1.374863107692906,2.5478620529174805,0.0
226,1,226,-1,-1,0.863606922886076,-1.6955639582427804,1.3325322494857672,0.6158969939253407,1.374863107692906,2.0598578453063965,0.0
227,1,227,-1,1,0.8247209144746293,-1.6866308965555672,1.3325322494857672,0.6153893425810693,1.374863107692906,3.0158839225769043,0.0
228,1,228,-1,1,-0.536632306002491,-1.3738949590447234,1.3325322494857672,0.5976170686801036,1.374863107692906,2.31085467338562,0.0
229,1,229,1,-1,1.2691917820567682,-1.2512261725937028,1.3325322494857672,0.6211918469427963,1.374863107692906,2.488859176635742,0.0
230,1,230,1,1,0.2575541840698933,-1.0188284172802347,1.3325322494857672,0.6079850610701066,1.374863107692906,1.9998586177825928,0.0
231,1,231,-1,1,-0.8811796778633406,-1.2947440496884906,1.3325322494857672,0.5931190514333946,1.374863107692906,2.366853952407837,0.0
232,1,232,1,1,-1.188045148621822,-0.6867390992589004,1.3325322494857672,0.5891129660802067,1.374863107692906,2.269855260848999,0.0
233,1,233,-1,1,-0.2685860990429174,-1.4354716906150562,1.3325322494857672,0.601116374030504,1.374863107692906,2.0618579387664795,0.0
234,1,234,1,-1,-0.02841585101670456,-0.953134146551972,1.3325322494857672,0.6042517626765813,1.374863107692906,2.4878592491149902,0.0
235,1,235,-1,-1,-1.4893497536577136,-1.1550325949692406,1.3325322494857672,0.5851794770431415,1.374863107692906,2.1148571968078613,0.0
236,1,236,-1,-1,-0.18024251991790952,-1.4557663589091818,1.3325322494857672,0.6022696869708818,1.374863107692906,3.0988876819610596,0.0
237,1,237,1,1,2.281312512348317,-1.483734915145436,1.3325322494857672,0.634404940039445,1.374863107692906,2.075857639312744,0.0
238,1,238,-1,-1,1.4105284986648314,-1.821205143185312,1.3325322494857672,0.6230369778037945,1.374863107692906,1.4968632459640503,1.0
239,1,239,-1,-1,0.5335502339503455,-1.6197419111109828,1.3325322494857672,0.6115881504963327,1.374863107692906,2.0198583602905273,0.0
240,1,240,1,-1,-0.3300165274200255,-0.8838491374374089,1.3325322494857672,0.6003144084696564,1.374863107692906,2.212855815887451,0.0
241,1,241,-1,1,1.0304068347042366,-1.7338819539066068,1.3325322494857672,0.6180745432012372,1.374863107692906,1.8188610076904297,0.0
242,1,242,-1,1,2.1529421307411525,-1.991755607058932,1.3325322494857672,0.6327290828494246,1.374863107692906,1.8668603897094727,0.0
243,1,243,-1,-1,-0.3715421639818764,-1.4118201790111626,1.3325322494857672,0.5997722971529252,1.374863107692906,1.949859380722046,1.0
244,1,244,1,-1,1.2493682091346032,-1.246672215861992,1.3325322494857672,0.620933052999851,1.374863107692906,2.2078559398651123,0.0
245,1,245,-1,1,1.804690226549716,-1.9117536765466765,1.3325322494857672,0.6281827034566805,1.374863107692906,2.2068560123443604,0.0
246,1,246,1,1,2.066039053848992,-1.4342813671225407,1.3325322494857672,0.6315945754621186,1.374863107692906,2.268855094909668,0.0
247,1,247,-1,-1,-1.0979841375856334,-1.2449387934567389,1.3325322494857672,0.59028869985147,1.374863107692906,2.268855094909668,0.0
248,1,248,-1,-1,-0.3114637465835748,-1.4256216523588663,1.3325322494857672,0.6005566124015166,1.374863107692906,2.4878592491149902,0.0
249,1,249,-1,1,-0.14944635564626468,-1.4628409866842242,1.3325322494857672,0.6026717265432002,1.374863107692906,1.8848601579666138,0.0
250,1,250,-1,-1,0.4468783317969549,-1.5998312676658606,1.3325322494857672,0.6104566610625708,1.374863107692906,2.085857629776001,0.0
251,1,251,1,1,0.24768844898323839,-1.016562018034874,1.3325322494857672,0.607856265292819,1.374863107692906,3.247894763946533,0.0
252,1,252,-1,1,0.2118560420795998,-1.5458409328981193,1.3325322494857672,0.6073884782846838,1.374863107692906,1.901859998703003,0.0
253,1,253,1,1,-1.1797699216110582,-0.688640120124315,1.3325322494857672,0.5892209979993411,1.374863107692906,2.661867141723633,0.0
254,1,254,-1,1,-0.7189354096710073,-1.3320155032360916,1.3325322494857672,0.5952371274255793,1.374863107692906,1.6958625316619873,0.0
255,1,255,-1,-1,-1.359022302188926,-1.1849719796237284,1.3325322494857672,0.5868808835036238,1.374863107692906,2.3298544883728027,0.0
256,1,256,1,1,-0.529914716484769,-0.8379276626698445,1.3325322494857672,0.5977047658618985,1.374863107692906,2.8868777751922607,0.0
257,1,257,1,1,-0.1677589030128377,-0.9211236592323327,1.3325322494857672,0.6024326588253385,1.374863107692906,3.248894691467285,0.0
258,1,258,1,1,-0.05080586873464675,-0.9479906150448068,1.3325322494857672,0.6039594641595284,1.374863107692906,1.8598604202270508,1.0
259,1,259,1,1,0.322461934349701,-1.0337393058212418,1.3325322494857672,0.6088324225769638,1.374863107692906,3.3948991298675537,0.0
260,1,260,-1,-1,0.502677004815907,-1.6126495796630416,1.3325322494857672,0.6111851048531218,1.374863107692906,5.336758613586426,0.0
261,1,261,-1,1,1.0581212809913412,-1.740248636125314,1.3325322494857672,0.6184363513807891,1.374863107692906,1.98685884475708,0.0
262,1,262,1,1,-1.5179069390325948,-0.6109618250574528,1.3325322494857672,0.5848066670238982,1.374863107692906,3.9498589038848877,0.0
263,1,263,-1,-1,-0.027726376983671044,-1.4908030255351734,1.3325322494857672,0.6042607636626431,1.374863107692906,2.076857566833496,0.0
264,1,264,1,-1,-1.9117373145326926,-0.5204894113960633,1.3325322494857672,0.5796652671295675,1.374863107692906,6.375683307647705,0.0
265,1,265,1,-1,1.06862520342353,-1.2051511524896443,1.3325322494857672,0.6185734786036813,1.374863107692906,2.953880786895752,0.0
266,1,266,-1,-1,-2.2930807919077307,-0.9703960318988647,1.3325322494857672,0.5746868819255565,1.374863107692906,1.7868614196777344,0.0
267,1,267,1,-1,-0.640826658962986,-0.8124484925394669,1.3325322494857672,0.5962568261274038,1.374863107692906,3.9698574542999268,0.0
268,1,268,1,1,-0.005129940227486668,-0.9584834864822127,1.3325322494857672,0.6045557569510683,1.374863107692906,3.560887098312378,0.0
269,1,269,1,1,2.2670464536492676,-1.4804576545677084,1.3325322494857672,0.6342186986592705,1.374863107692906,1.9638590812683105,0.0
270,1,270,1,1,-0.5836313008452292,-0.8255876570657434,1.3325322494857672,0.5970035034445341,1.374863107692906,2.227855682373047,0.0
271,1,271,1,1,0.4699335399081948,-1.0676171195486748,1.3325322494857672,0.6107576435462007,1.374863107692906,3.0248842239379883,0.0
272,1,272,1,1,-0.24764808697048418,-0.9027711710858586,1.3325322494857672,0.6013897168190586,1.374863107692906,2.5798635482788086,0.0
273,1,273,1,1,0.8083751338862185,-1.1453653832566686,1.3325322494857672,0.6151759507255444,1.374863107692906,2.0058586597442627,0.0
274,1,274,-1,1,-1.6539275733152707,-1.1172250679072646,1.3325322494857672,0.583030936866366,1.374863107692906,3.215893268585205,0.0
275,1,275,1,1,-0.37102753802925204,-0.8744279110736526,1.3325322494857672,0.5997790155220075,1.374863107692906,2.415855884552002,0.0
276,1,276,-1,1,-0.30849042678312916,-1.4263046962164965,1.3325322494857672,0.6005954286713089,1.374863107692906,2.917879104614258,0.0
277,1,277,-1,1,-1.083803583269897,-1.2481964115984883,1.3325322494857672,0.5904738249840044,1.374863107692906,2.325854539871216,0.0
278,1,278,1,-1,-0.7538056413962475,-0.7864944730691167,1.3325322494857672,0.5947819014784193,1.374863107692906,2.7568717002868652,1.0
279,1,279,1,1,0.5272748056154025,-1.080789802596148,1.3325322494857672,0.611506225666291,1.374863107692906,2.370853900909424,0.0
280,1,280,-1,1,-0.288462872016743,-1.4309055125378627,1.3325322494857672,0.6008568855684028,1.374863107692906,2.5168604850769043,0.0
281,1,281,1,1,-0.08341338338805011,-0.9404998760421424,1.3325322494857672,0.6035337776639641,1.374863107692906,2.431856632232666,0.0
282,1,282,-1,-1,-0.6123557801922821,-1.3564994357256372,1.3325322494857672,0.5966285094261269,1.374863107692906,2.93988037109375,0.0
283,1,283,1,-1,-0.3612863292344661,-0.8766657036017802,1.3325322494857672,0.5999061856261534,1.374863107692906,2.9058785438537598,0.0
284,1,284,1,1,-2.2532128695786864,-0.4420441730567315,1.3325322494857672,0.5752073520172539,1.374863107692906,4.144845008850098,0.0
285,1,285,-1,-1,-1.671691113733815,-1.1131443507335408,1.3325322494857672,0.5827990363566228,1.374863107692906,1.7408620119094849,0.0
286,1,286,-1,-1,-0.20375378282649043,-1.4503652501174444,1.3325322494857672,0.6019627507563243,1.374863107692906,1.938859462738037,0.0
287,1,287,1,-1,-0.2836977645133447,-0.8944896835675943,1.3325322494857672,0.600919093373434,1.374863107692906,2.6218652725219727,0.0
288,1,288,-1,-1,0.7602829753998606,-1.6718279350723222,1.3325322494857672,0.6145481143930982,1.374863107692906,3.5218899250030518,0.0
289,1,289,1,1,-1.6262625466824239,-0.5860699071971858,1.3325322494857672,0.5833920998793158,1.374863107692906,2.8548762798309326,0.0
290,1,290,-1,-1,1.4895486486890157,-1.8393579931057755,1.3325322494857672,0.6240685746948886,1.374863107692906,2.671867847442627,0.0
291,1,291,1,-1,-1.4044742760099809,-0.6370200659909087,1.3325322494857672,0.5862875144088607,1.374863107692906,2.736870765686035,0.0
292,1,292,-1,-1,-1.285995458579378,-1.2017480213270606,1.3325322494857672,0.587834238626475,1.374863107692906,1.7038624286651611,0.0
293,1,293,1,1,1.109510197732109,-1.21454342984492,1.3325322494857672,0.6191072264263344,1.374863107692906,3.3418989181518555,0.0
294,1,294,-1,1,1.2706510218482971,-1.7890718854893126,1.3325322494857672,0.6212108971120486,1.374863107692906,1.901859998703003,0.0
295,1,295,-1,-1,1.2193652742749108,-1.7772903022036124,1.3325322494857672,0.6205413689254031,1.374863107692906,1.9778590202331543,0.0
296,1,296,-1,-1,0.09559004903694536,-1.5191318071635944,1.3325322494857672,0.6058706421767281,1.374863107692906,1.8438606262207031,0.0
297,1,297,1,-1,1.0162262971236364,-1.1931138495768139,1.3325322494857672,0.6178894182871778,1.374863107692906,2.0578579902648926,0.0
298,1,298,1,-1,1.9073873770168877,-1.3978352191681058,1.3325322494857672,0.6295234002424211,1.374863107692906,3.405898332595825,0.0
299,1,299,-1,1,-0.16167543976336846,-1.4600316686991968,1.3325322494857672,0.6025120775783188,1.374863107692906,3.3238983154296875,0.0
300,1,300,-1,-1,-0.33964281442002553,-1.4191482352725018,1.3325322494857672,0.6001887386533002,1.374863107692906,1.7348620891571045,0.0
301,1,301,1,-1,1.113135454986801,-1.2153762395883507,1.3325322494857672,0.6191545536474573,1.374863107692906,3.0488853454589844,0.0
302,1,302,1,-1,1.1871951211227634,-1.2323895457401903,1.3325322494857672,0.6201213921224279,1.374863107692906,2.27585506439209,0.0
303,1,303,-1,-1,0.6479743309056808,-1.6460279085265668,1.3325322494857672,0.6130819409111732,1.374863107692906,1.7568618059158325,0.0
304,1,304,1,1,-0.5075012207094088,-0.843076587657693,1.3325322494857672,0.5979973708816729,1.374863107692906,2.137856960296631,0.0
305,1,305,1,1,0.3416716045477588,-1.0381522341695202,1.3325322494857672,0.6090832021066052,1.374863107692906,2.12585711479187,0.0
306,1,306,1,-1,-0.6847959994714549,-0.8023476658628824,1.3325322494857672,0.5956828126010044,1.374863107692906,2.001858711242676,1.0
307,1,307,1,1,0.12438570740225624,-0.9882363800549888,1.3325322494857672,0.6062465654271595,1.374863107692906,3.5448882579803467,0.0
308,1,308,1,1,-0.8484364552029324,-0.7647554740877387,1.3325322494857672,0.5935465095778114,1.374863107692906,2.318854570388794,0.0
309,1,309,-1,1,0.3597158739981409,-1.5798079316605966,1.3325322494857672,0.6093187674941852,1.374863107692906,2.2588553428649902,0.0
310,1,310,-1,-1,-0.25635946856886604,-1.4382804449386115,1.3325322494857672,0.6012759909634221,1.374863107692906,1.947859287261963,0.0
311,1,311,-1,-1,-0.4088592443835923,-1.4032475382379561,1.3325322494857672,0.599285127942093,1.374863107692906,2.5648627281188965,0.0
312,1,312,-1,1,0.7640381722955558,-1.6726905951109134,1.3325322494857672,0.6145971379578707,1.374863107692906,1.586863398551941,1.0
313,1,313,-1,1,1.838822049441767,-1.9195945862169521,1.3325322494857672,0.6286282895808785,1.374863107692906,2.1778564453125,0.0
314,1,314,1,1,-1.4995242816164924,-0.6151847684600111,1.3325322494857672,0.5850466500185483,1.374863107692906,3.3018970489501953,0.0
315,1,315,-1,-1,0.35738079332439954,-1.579271506849841,1.3325322494857672,0.6092882833459933,1.374863107692906,1.8648604154586792,0.0
316,1,316,1,-1,-0.09335898761756922,-0.9382151289125618,1.3325322494857672,0.6034039392063038,1.374863107692906,2.1578567028045654,0.0
317,1,317,1,1,-0.052243032321960384,-0.947660463622623,1.3325322494857672,0.6039407021920022,1.374863107692906,4.751800537109375,0.0
318,1,318,-1,1,0.07770618045046557,-1.5150234476837872,1.3325322494857672,0.6056371707997578,1.374863107692906,1.7958612442016602,0.0
319,1,319,-1,-1,1.1843959832101574,-1.769257005730128,1.3325322494857672,0.6200848497725652,1.374863107692906,2.5528621673583984,0.0
320,1,320,1,1,-0.027573960692266017,-0.953327549230964,1.3325322494857672,0.6042627534357873,1.374863107692906,1.9258596897125244,1.0
321,1,321,-1,1,-2.4584453271826723,-0.9324077771297395,1.3325322494857672,0.5725280712875781,1.374863107692906,1.8588604927062988,0.0
322,1,322,-1,1,-0.6317514540565459,-1.3520437778123522,1.3325322494857672,0.5963753016449099,1.374863107692906,2.180856227874756,0.0
323,1,323,-1,-1,-0.8969008118134598,-1.291132522943873,1.3325322494857672,0.5929138142514548,1.374863107692906,2.8498759269714355,0.0
324,1,324,1,1,-1.870714485829084,-0.5299133526634688,1.3325322494857672,0.5802008143607683,1.374863107692906,1.4778631925582886,1.0
325,1,325,-1,1,-1.4376225529509892,-1.1669155907740763,1.3325322494857672,0.5858547683380546,1.374863107692906,2.8658766746520996,1.0
326,1,326,-1,-1,-1.3444157769391487,-1.1883274536469681,1.3325322494857672,0.5870715696265019,1.374863107692906,2.700869083404541,0.0
327,1,327,-1,1,1.4668602698517506,-1.8341459207945303,1.3325322494857672,0.6237723811155886,1.374863107692906,2.180856227874756,0.0
328,1,328,1,-1,-0.44570788039084136,-0.8572720205003765,1.3325322494857672,0.5988040742066281,1.374863107692906,3.519890069961548,0.0
329,1,329,1,-1,0.872680027548965,-1.1601377809736297,1.3325322494857672,0.6160154420244641,1.374863107692906,2.1608567237854004,0.0
330,1,330,1,1,0.38016571776423963,-1.0469952680010968,1.3325322494857672,0.6095857373144907,1.374863107692906,3.0338845252990723,0.0
331,1,331,-1,1,-1.3151222527069895,-1.1950568884666326,1.3325322494857672,0.5874539924454644,1.374863107692906,2.0038585662841797,0.0
332,1,332,-1,1,0.353397798723908,-1.578356516139312,1.3325322494857672,0.609236285914378,1.374863107692906,2.703869342803955,0.0
333,1,333,-1,1,-1.3396238197484218,-1.1894282827352696,1.3325322494857672,0.5871341279504066,1.374863107692906,2.0568580627441406,0.0
334,1,334,-1,1,-0.0893557200315999,-1.4766452668533256,1.3325322494857672,0.6034562012988794,1.374863107692906,2.371853828430176,0.0
335,1,335,-1,1,0.6538602101609805,-1.6473800381129915,1.3325322494857672,0.613158780233033,1.374863107692906,1.7928613424301147,0.0
336,1,336,-1,-1,-0.2559105515759039,-1.4383835720877944,1.3325322494857672,0.6012818515113223,1.374863107692906,2.2538554668426514,0.0
337,1,337,1,1,0.04559315504271422,-0.9701358148523755,1.3325322494857672,0.6052179397914121,1.374863107692906,2.6458663940429688,0.0
338,1,338,1,1,-0.48151711000992625,-0.8490457697169533,1.3325322494857672,0.5983365897746671,1.374863107692906,3.754873037338257,0.0
339,1,339,-1,-1,-0.13488579798033595,-1.4661859008357028,1.3325322494857672,0.6028618125657674,1.374863107692906,3.0948874950408936,0.0
340,1,340,-1,1,-0.4250304845053956,-1.3995326111608872,1.3325322494857672,0.599074014687693,1.374863107692906,2.2028560638427734,0.0
341,1,341,-1,1,-0.72292829198723,-1.3310982410768286,1.3325322494857672,0.5951850009112325,1.374863107692906,3.1078882217407227,0.0
342,1,342,-1,-1,0.7121217870883689,-1.660764139026097,1.3325322494857672,0.6139193768860405,1.374863107692906,1.939859390258789,0.0
343,1,343,1,1,1.0273682516556044,-1.195673427461411,1.3325322494857672,0.618034874928963,1.374863107692906,2.0138585567474365,0.0
344,1,344,1,1,-0.5402519049906074,-0.8355529591102007,1.3325322494857672,0.5975698153268512,1.374863107692906,3.3108975887298584,1.0
345,1,345,-1,1,1.5638807195162168,-1.8564338772390059,1.3325322494857672,0.625038969374606,1.374863107692906,3.3719005584716797,0.0
346,1,346,1,1,0.5952533001191735,-1.096406115753847,1.3325322494857672,0.612393675305021,1.374863107692906,3.1218886375427246,0.0
347,1,347,1,1,1.7362555348577597,-1.3585220737694153,1.3325322494857672,0.6272892982281305,1.374863107692906,2.6068646907806396,0.0
348,1,348,1,1,1.68214816389748,-1.3460922949809393,1.3325322494857672,0.6265829341469333,1.374863107692906,2.5548622608184814,0.0
349,1,349,-1,1,0.1368966552323757,-1.5286209390212264,1.3325322494857672,0.6064098940829801,1.374863107692906,1.9408594369888306,0.0
350,1,350,-1,1,1.3302932069844904,-1.8027731456789535,1.3325322494857672,0.6219895174101083,1.374863107692906,2.660867214202881,0.0
351,1,351,-1,1,0.5814875643824974,-1.6307542815589784,1.3325322494857672,0.6122139655704123,1.374863107692906,2.219855785369873,0.0
352,1,352,-1,1,-1.2833885640580132,-1.2023468883880613,1.3325322494857672,0.5878682712660338,1.374863107692906,2.1048574447631836,0.0
353,1,353,1,-1,-0.13527445133727425,-0.9285861276765787,1.3325322494857672,0.6028567387511189,1.374863107692906,1.9818589687347412,0.0
354,1,354,-1,1,0.17390912932062444,-1.5371236043173995,1.3325322494857672,0.6068930867014382,1.374863107692906,3.2958970069885254,0.0
355,1,355,-1,1,0.67885983735147,-1.653123060371461,1.3325322494857672,0.6134851468329487,1.374863107692906,2.1008572578430176,0.0
356,1,356,1,1,-1.3825287428981279,-0.6420614885759341,1.3325322494857672,0.5865740102421977,1.374863107692906,3.7418739795684814,0.0
357,1,357,1,1,0.38450679346722466,-1.0479925186479955,1.3325322494857672,0.6096424094442935,1.374863107692906,3.3258981704711914,0.0
358,1,358,-1,-1,-1.6226172714607539,-1.124417805586901,1.3325322494857672,0.5834396884321685,1.374863107692906,2.0688576698303223,0.0
359,1,359,-1,-1,-0.19495348511483412,-1.4523868924905126,1.3325322494857672,0.6020776373992537,1.374863107692906,2.166856527328491,0.0
360,1,360,-1,-1,1.2576738887595182,-1.7860907224658762,1.3325322494857672,0.6210414824735595,1.374863107692906,2.7798728942871094,0.0
361,1,361,-1,1,1.3821842641486781,-1.8146937832964145,1.3325322494857672,0.6226669478279168,1.374863107692906,2.719870090484619,0.0
362,1,362,-1,-1,0.6820583884210766,-1.653857845328358,1.3325322494857672,0.6135269034651293,1.374863107692906,2.0958573818206787,0.0
363,1,363,1,-1,1.0519479229930069,-1.2013199756487483,1.3325322494857672,0.6183557590645667,1.374863107692906,2.1898562908172607,0.0
364,1,364,1,-1,1.8975686383431987,-1.3955796161415717,1.3325322494857672,0.629395217996663,1.374863107692906,3.6338818073272705,0.0
365,1,365,1,-1,0.05594549486783608,-0.9725139990384795,1.3325322494857672,0.6053530881247914,1.374863107692906,2.980882167816162,0.0
366,1,366,-1,1,-1.0531667869595511,-1.255234428677617,1.3325322494857672,0.5908737840301105,1.374863107692906,2.0538580417633057,0.0
367,1,367,-1,1,-0.7301527123313577,-1.3294386160542344,1.3325322494857672,0.5950906871246264,1.374863107692906,2.5358614921569824,0.0
368,1,368,-1,1,1.4505136974320703,-1.8303907156252461,1.3325322494857672,0.6235589789228185,1.374863107692906,1.9588592052459717,0.0
369,1,369,-1,-1,0.5061791130696028,-1.6134540990864432,1.3325322494857672,0.6112308243814406,1.374863107692906,1.939859390258789,0.0
370,1,370,-1,-1,0.8294993646217969,-1.6877286227475246,1.3325322494857672,0.6154517245724291,1.374863107692906,1.9038598537445068,0.0
371,1,371,-1,-1,-1.0046262484444546,-1.2663853706899182,1.3325322494857672,0.5915074739004649,1.374863107692906,3.0648860931396484,0.0
372,1,372,1,-1,0.8967542792371883,-1.1656682219777286,1.3325322494857672,0.6163297279779758,1.374863107692906,3.492892026901245,0.0
373,1,373,1,1,0.5717160928643337,-1.0909990469149091,1.3325322494857672,0.6120864003906896,1.374863107692906,1.9698591232299805,0.0
374,1,374,1,-1,-0.5434494567668572,-0.8348184037152867,1.3325322494857672,0.5975280717403042,1.374863107692906,2.0508580207824707,0.0
375,1,375,-1,-1,0.4221558772413485,-1.5941519187013742,1.3325322494857672,0.6101339129122322,1.374863107692906,2.95988130569458,0.0
376,1,376,-1,-1,0.006036487960160472,-1.4985591765931336,1.3325322494857672,0.6047015330929698,1.374863107692906,2.7438712120056152,0.0
377,1,377,-1,1,-1.9181027631705143,-1.0565376030937392,1.3325322494857672,0.5795821670971936,1.374863107692906,2.5918641090393066,0.0
378,1,378,-1,-1,-0.8103629146502594,-1.3110123821842732,1.3325322494857672,0.5940435542690081,1.374863107692906,1.754861831665039,0.0
379,1,379,1,-1,-0.3010768127709283,-0.8904972935925834,1.3325322494857672,0.600692212354514,1.374863107692906,2.40085506439209,0.0
380,1,380,1,1,0.340756778204357,-1.0379420763134548,1.3325322494857672,0.6090712591779793,1.374863107692906,2.2458555698394775,0.0
381,1,381,-1,-1,-1.2866245229933473,-1.2016035099347944,1.3325322494857672,0.5878260262794528,1.374863107692906,3.163890838623047,0.0
382,1,382,-1,-1,-0.5467009927505038,-1.3715819368677609,1.3325322494857672,0.597485623397559,1.374863107692906,3.7648723125457764,0.0
383,1,383,1,-1,1.3353838134930975,-1.26643209174504,1.3325322494857672,0.6220559745586516,1.374863107692906,2.8388755321502686,0.0
384,1,384,-1,-1,-0.639579514068536,-1.3502454820799024,1.3325322494857672,0.596273107427749,1.374863107692906,2.136857032775879,0.0
385,1,385,1,1,-1.3209405758139956,-0.6562097881376601,1.3325322494857672,0.5873780350595732,1.374863107692906,3.0608859062194824,0.0
386,1,386,-1,1,1.598560101562389,-1.8644005745614725,1.3325322494857672,0.6254917038061775,1.374863107692906,2.3388543128967285,0.0
387,1,387,-1,-1,-0.39393000587336746,-1.4066771473442405,1.3325322494857672,0.599480027040979,1.374863107692906,3.755872964859009,0.0
388,1,388,1,1,-1.2387577487679473,-0.675089181873938,1.3325322494857672,0.5884509202522245,1.374863107692906,3.0368847846984863,0.0
389,1,389,-1,-1,0.214263941717035,-1.546394085995507,1.3325322494857672,0.6074199130741555,1.374863107692906,1.9448593854904175,0.0
390,1,390,-1,1,-0.7816824988583745,-1.3176009710868155,1.3325322494857672,0.59441797304393,1.374863107692906,2.137856960296631,0.0
391,1,391,-1,1,-1.5063013124590816,-1.1511384097171882,1.3325322494857672,0.5849581768386578,1.374863107692906,1.607863426208496,1.0
392,1,392,1,-1,-0.7980285570574474,-0.7763353940139974,1.3325322494857672,0.5942045775642372,1.374863107692906,2.3278543949127197,0.0
393,1,393,-1,1,1.194665500554968,-1.771616163578587,1.3325322494857672,0.6202189168701688,1.374863107692906,2.2838549613952637,0.0
394,1,394,1,-1,1.9637120173249174,-1.4107743586410482,1.3325322494857672,0.6302587104615991,1.374863107692906,2.459857940673828,0.0
395,1,395,-1,1,-0.3664230373405993,-1.4129961668777322,1.3325322494857672,0.5998391266277698,1.374863107692906,1.9928587675094604,0.0
396,1,396,1,1,-2.3207056543827362,-0.42653943922761217,1.3325322494857672,0.5743262432500111,1.374863107692906,4.885790824890137,0.0
397,1,397,-1,-1,-0.21324074410281202,-1.4481858644266097,1.3325322494857672,0.6018388998176006,1.374863107692906,1.6988625526428223,0.0
398,1,398,1,1,0.6177434999268868,-1.1015726615230679,1.3325322494857672,0.6126872816850977,1.374863107692906,1.577863335609436,1.0
399,1,399,-1,1,0.32238768016064023,-1.5712327378609552,1.3325322494857672,0.6088314531990194,1.374863107692906,2.1528568267822266,0.0
400,1,400,-1,-1,0.44891636431862847,-1.600299453293041,1.3325322494857672,0.6104832672891176,1.374863107692906,2.041858196258545,0.0
401,1,401,-1,-1,0.10774037255364348,-1.5219230319235602,1.3325322494857672,0.606029262933102,1.374863107692906,1.9218597412109375,0.0
402,1,402,-1,-1,-1.1663470229616892,-1.2292341763687988,1.3325322494857672,0.5893962320442262,1.374863107692906,2.075857639312744,0.0
403,1,403,-1,-1,-0.8505159393652962,-1.3017882560432616,1.3325322494857672,0.5935193622059536,1.374863107692906,1.9078598022460938,0.0
404,1,404,-1,1,1.4681703828785766,-1.8344468856135991,1.3325322494857672,0.623789484456003,1.374863107692906,1.9078598022460938,0.0
405,1,405,-1,-1,-0.6634212486293849,-1.3447684559138655,1.3325322494857672,0.5959618569524747,1.374863107692906,2.672867774963379,0.0
406,1,406,1,-1,-0.9189476058939334,-0.7485573482195749,1.3325322494857672,0.5926259964704832,1.374863107692906,3.451894998550415,0.0
407,1,407,1,1,1.2194873916752311,-1.2398078655073705,1.3325322494857672,0.6205429631508061,1.374863107692906,2.40785551071167,0.0
408,1,408,1,-1,0.7537727043235254,-1.132821877469336,1.3325322494857672,0.6144631237242565,1.374863107692906,1.8858602046966553,0.0
409,1,409,-1,1,0.23268578032232318,-1.550626030269954,1.3325322494857672,0.6076604075736932,1.374863107692906,1.9298596382141113,0.0
410,1,410,-1,1,2.7827981666407178,-2.1364488541317805,1.3325322494857672,0.6409517643840967,1.374863107692906,2.0968575477600098,0.0
411,1,411,-1,1,-0.5281837687662523,-1.3758357934831538,1.3325322494857672,0.5977273631397386,1.374863107692906,1.9268596172332764,0.0
412,1,412,-1,1,1.7329502444554228,-1.8952732582248197,1.3325322494857672,0.6272461481290461,1.374863107692906,2.0148584842681885,0.0
413,1,413,1,-1,0.355653811059887,-1.0413642869977409,1.3325322494857672,0.6092657378365948,1.374863107692906,4.147844314575195,0.0
414,1,414,-1,1,0.7110750746748954,-1.6605236837327844,1.3325322494857672,0.6139057122034085,1.374863107692906,2.1098573207855225,0.0
415,1,415,1,-1,-1.926265567582645,-0.5171519184003959,1.3325322494857672,0.5794756028391963,1.374863107692906,2.2108559608459473,0.0
416,1,416,1,-1,-0.6710988776911034,-0.805494227796072,1.3325322494857672,0.59586162659011,1.374863107692906,2.5998644828796387,0.0
417,1,417,-1,-1,-0.29104043464658347,-1.4303133837255815,1.3325322494857672,0.6008232358525426,1.374863107692906,3.0678863525390625,0.0
418,1,418,1,-1,-0.41570326491803006,-0.8641648102689667,1.3325322494857672,0.5991957802212428,1.374863107692906,2.0038585662841797,0.0
419,1,419,-1,1,-1.0959807115279638,-1.2453990291376442,1.3325322494857672,0.59031485429552,1.374863107692906,2.5828635692596436,0.0
420,1,420,1,-1,-1.3858627657923335,-0.6412955824467839,1.3325322494857672,0.5865304850444925,1.374863107692906,2.8158745765686035,0.0
421,1,421,-1,-1,-1.988304911837892,-1.0404104625041182,1.3325322494857672,0.5786656879676142,1.374863107692906,2.1028573513031006,0.0
422,1,422,-1,-1,-0.3049242303869918,-1.4271239382445888,1.3325322494857672,0.6006419848612701,1.374863107692906,1.6328634023666382,0.0
423,1,423,1,-1,0.23353985617703854,-1.0133117422290436,1.3325322494857672,0.6076715574132748,1.374863107692906,1.7688616514205933,0.0
424,1,424,1,-1,1.458393586572964,-1.2946904277363749,1.3325322494857672,0.6236618497619326,1.374863107692906,2.266855239868164,0.0
425,1,425,1,-1,1.3407101882570858,-1.2676556895448572,1.3325322494857672,0.6221255096284489,1.374863107692906,4.009854316711426,0.0
426,1,426,-1,-1,-0.3610385484617043,-1.4142331149028506,1.3325322494857672,0.5999094203691243,1.374863107692906,1.733862042427063,0.0
427,1,427,-1,-1,0.3618330215181633,-1.580294291926664,1.3325322494857672,0.6093464065558546,1.374863107692906,2.030858278274536,0.0
428,1,428,-1,-1,0.27716843747080316,-1.560844778260595,1.3325322494857672,0.6082411223762839,1.374863107692906,2.134856939315796,0.0
429,1,429,-1,1,1.4271049564234437,-1.8250131586068583,1.3325322494857672,0.6232533811171761,1.374863107692906,2.91987943649292,0.0
430,1,430,1,1,-0.46544171482113816,-0.8527386788823358,1.3325322494857672,0.5985464517870119,1.374863107692906,2.5238609313964844,0.0
431,1,431,-1,1,-1.7794349461503194,-1.088392972520341,1.3325322494857672,0.5813924558512528,1.374863107692906,2.723870277404785,0.0
432,1,432,-1,-1,0.1695586387638564,-1.5361241908496543,1.3325322494857672,0.6068362916620499,1.374863107692906,3.726875066757202,0.0
433,1,433,-1,1,1.1848581570176946,-1.7693631782919725,1.3325322494857672,0.6200908833863061,1.374863107692906,3.5008914470672607,0.0
434,1,434,1,1,-1.167958006526901,-0.6913536042385611,1.3325322494857672,0.5893752008814536,1.374863107692906,1.5958634614944458,1.0
435,1,435,1,1,-0.685148475487269,-0.8022666935512166,1.3325322494857672,0.5956782110764314,1.374863107692906,3.430896520614624,0.0
436,1,436,1,-1,-1.1868409870145544,-0.6870157244605739,1.3325322494857672,0.5891286862398123,1.374863107692906,3.4618942737579346,0.0
437,1,437,-1,1,-0.155451908513706,-1.461461365159098,1.3325322494857672,0.6025933248992466,1.374863107692906,2.375854015350342,0.0
438,1,438,1,-1,0.16288190698945493,-0.9970798931766515,1.3325322494857672,0.6067491278723198,1.374863107692906,3.160890579223633,0.0
439,1,439,1,-1,0.6146159831364131,-1.1008541948673627,1.3325322494857672,0.6126464523953924,1.374863107692906,2.2858550548553467,0.0
440,1,440,1,1,0.5055426918534944,-1.0757974076253258,1.3325322494857672,0.6112225159924062,1.374863107692906,1.8908600807189941,0.0
441,1,441,1,1,1.485838101413516,-1.3009951001381357,1.3325322494857672,0.6240201340245978,1.374863107692906,3.8948628902435303,0.0
442,1,442,1,1,1.5820915658100279,-1.3231068614164907,1.3325322494857672,0.6252767093993356,1.374863107692906,2.697868824005127,0.0
443,1,443,-1,1,0.34473442437094726,-1.5763663283911749,1.3325322494857672,0.6091231867865459,1.374863107692906,2.2558553218841553,0.0
444,1,444,1,-1,0.3063464023331665,-1.0300371762505558,1.3325322494857672,0.608622036584005,1.374863107692906,2.742871046066284,0.0
445,1,445,-1,-1,-0.11680409722151516,-1.470339707175999,1.3325322494857672,0.6030978666137893,1.374863107692906,1.8808602094650269,0.0
446,1,446,1,1,0.5546331485050235,-1.0870746792054162,1.3325322494857672,0.6118633849663149,1.374863107692906,2.179856300354004,1.0
447,1,447,1,-1,0.2969874940422503,-1.0278872074442147,1.3325322494857672,0.6084998573589088,1.374863107692906,1.9328595399856567,1.0
448,1,448,1,-1,-0.3358614515318047,-0.882506416243319,1.3325322494857672,0.6002381038114073,1.374863107692906,2.2818551063537598,0.0
449,1,449,1,1,0.4748273633006975,-1.0687413497805103,1.3325322494857672,0.6108215317189734,1.374863107692906,3.450895071029663,0.0
450,1,450,1,1,-0.09892680594476204,-0.9369360656553165,1.3325322494857672,0.6033312521249106,1.374863107692906,1.9528592824935913,0.0
451,1,451,-1,-1,0.05779592623126199,-1.5104495781503977,1.3325322494857672,0.6053772452447299,1.374863107692906,2.2828550338745117,0.0
452,1,452,-1,1,2.5809577477492196,-2.0900812019456043,1.3325322494857672,0.6383167662404349,1.374863107692906,1.8388607501983643,0.0
453,1,453,-1,1,-0.009385146181008247,-1.4950164522372922,1.3325322494857672,0.6045002058387093,1.374863107692906,2.173856496810913,0.0
454,1,454,1,-1,-1.2581510670396945,-0.6706340650975327,1.3325322494857672,0.5881977432229349,1.374863107692906,3.4828927516937256,0.0
455,1,455,1,1,0.36047371376689047,-1.042471535850656,1.3325322494857672,0.6093286609852651,1.374863107692906,1.8688603639602661,0.0
456,1,456,1,1,1.1108343868599704,-1.214847628286672,1.3325322494857672,0.6191245135282585,1.374863107692906,2.034858226776123,0.0
457,1,457,-1,-1,-0.35496925579591604,-1.415627379009559,1.3325322494857672,0.5999886541271374,1.374863107692906,2.323854446411133,0.0
458,1,458,-1,-1,-1.0307163105868085,-1.2603918490079071,1.3325322494857672,0.5911668718263576,1.374863107692906,2.6368660926818848,0.0
459,1,459,1,-1,-0.37963404781386084,-0.872450786499589,1.3325322494857672,0.5996666587530789,1.374863107692906,2.045858144760132,0.0
460,1,460,1,-1,0.8875280196915621,-1.1635487258136776,1.3325322494857672,0.6162092804635029,1.374863107692906,2.714869737625122,0.0
461,1,461,1,-1,-0.981747616338364,-0.7341306587707142,1.3325322494857672,0.591806151209302,1.374863107692906,2.5868637561798096,0.0
462,1,462,1,-1,-0.575228479005658,-0.8275179895659404,1.3325322494857672,0.5971132010961264,1.374863107692906,4.182842254638672,1.0
463,1,463,-1,-1,0.49462222386506716,-1.6107992006179745,1.3325322494857672,0.6110799508261453,1.374863107692906,2.091857433319092,0.0
464,1,464,-1,1,1.0718732136967388,-1.7434077894607733,1.3325322494857672,0.6186158809187752,1.374863107692906,2.1118571758270264,0.0
465,1,465,1,1,0.35765027211515016,-1.0418229226482318,1.3325322494857672,0.6092918013535226,1.374863107692906,3.0278844833374023,0.0
466,1,466,1,-1,-1.1060406153869247,-0.7055775345713512,1.3325322494857672,0.5901835236723507,1.374863107692906,2.6378660202026367,0.0
467,1,467,-1,1,-0.5431777824183628,-1.3723913039517008,1.3325322494857672,0.5975316184105296,1.374863107692906,2.1408567428588867,0.0
468,1,468,1,1,0.4467334179133059,-1.0622874873905384,1.3325322494857672,0.6104547692322996,1.374863107692906,2.5738630294799805,0.0
469,1,469,-1,1,0.7941785440772072,-1.6796145714047048,1.3325322494857672,0.6149906162519116,1.374863107692906,1.7988612651824951,0.0
470,1,470,-1,-1,-1.5976309457244133,-1.1301577721779132,1.3325322494857672,0.5837658813834802,1.374863107692906,2.6298656463623047,0.0
471,1,471,1,1,0.7228072062941318,-1.1257083496126064,1.3325322494857672,0.6140588735236617,1.374863107692906,2.6348659992218018,0.0
472,1,472,-1,-1,2.3228194749718654,-2.0307805637789995,1.3325322494857672,0.6349468075705509,1.374863107692906,2.966881513595581,0.0
473,1,473,-1,-1,-0.008679481908941855,-1.4951785604795713,1.3325322494857672,0.6045094181860535,1.374863107692906,2.1528568267822266,0.0
474,1,474,-1,-1,0.615408055891137,-1.6385466432717346,1.3325322494857672,0.6126567927932661,1.374863107692906,1.9198596477508545,0.0
475,1,475,-1,-1,0.3689375648668135,-1.5819263782884592,1.3325322494857672,0.6094391553652262,1.374863107692906,3.0628859996795654,0.0
476,1,476,-1,-1,-0.11494723315323141,-1.4707662740041298,1.3325322494857672,0.6031221077117805,1.374863107692906,3.875864267349243,0.0
477,1,477,-1,-1,-1.8174135904325723,-1.0796683544371382,1.3325322494857672,0.5808966500174553,1.374863107692906,1.6988625526428223,0.0
478,1,478,-1,1,-0.3795344555272397,-1.4099841553020305,1.3325322494857672,0.5996679589163059,1.374863107692906,1.8278608322143555,0.0
479,1,479,-1,1,0.02906089867444897,-1.5038484435975075,1.3325322494857672,0.6050021135209349,1.374863107692906,5.486747741699219,0.0
480,1,480,-1,-1,-0.03141532728217164,-1.4899555839508152,1.3325322494857672,0.6042126049378347,1.374863107692906,2.8938779830932617,0.0
481,1,481,-1,1,1.0277080384174142,-1.7332619747753903,1.3325322494857672,0.6180393107971184,1.374863107692906,2.0248584747314453,0.0
482,1,482,-1,-1,-1.2082879374161017,-1.2195993284801914,1.3325322494857672,0.5888486993332964,1.374863107692906,3.430896520614624,0.0
483,1,483,-1,1,1.3879667780299443,-1.8160221673429835,1.3325322494857672,0.6227424377294266,1.374863107692906,1.6098634004592896,0.0
484,1,484,1,-1,-1.1802202393862506,-0.6885366711813924,1.3325322494857672,0.5892151191644269,1.374863107692906,2.0138585567474365,1.0
485,1,485,1,1,-1.4252057240141554,-0.6322575482769015,1.3325322494857672,0.5860168682850248,1.374863107692906,1.7908613681793213,0.0
486,1,486,-1,-1,-0.10528681563763898,-1.4729855068109001,1.3325322494857672,0.6032482230971944,1.374863107692906,2.8858776092529297,0.0
487,1,487,-1,1,-0.20871815063880111,-1.4492248141170156,1.3325322494857672,0.6018979416361206,1.374863107692906,2.1128573417663574,0.0
488,1,488,-1,-1,-1.0446984832653634,-1.2571798039520812,1.3325322494857672,0.5909843365380606,1.374863107692906,2.1588566303253174,0.0
489,1,489,1,-1,0.300168402299967,-1.0286179394182167,1.3325322494857672,0.6085413836666734,1.374863107692906,3.0228841304779053,0.0
490,1,490,1,1,-0.4302179461132676,-0.8608304350583416,1.3325322494857672,0.5990062931095168,1.374863107692906,2.765872001647949,0.0
491,1,491,1,1,-0.8842578762371025,-0.7565264226398232,1.3325322494857672,0.5930788659886496,1.374863107692906,2.8638768196105957,0.0
492,1,492,1,-1,-0.3541678635389055,-0.8783009882651975,1.3325322494857672,0.5999991161897964,1.374863107692906,2.6468665599823,0.0
493,1,493,1,1,-0.37091916827210836,-0.8744528062419956,1.3325322494857672,0.5997804302738717,1.374863107692906,2.124856948852539,0.0
494,1,494,-1,1,-0.08907302690527978,-1.4767102083384287,1.3325322494857672,0.6034598918176921,1.374863107692906,2.1058573722839355,0.0
495,1,495,1,-1,-1.1406918607648702,-0.6976173009257496,1.3325322494857672,0.5897311565610065,1.374863107692906,3.139889717102051,0.0
496,1,496,1,-1,-0.5271964951103273,-0.8385521042160291,1.3325322494857672,0.5977402518577909,1.374863107692906,2.231855630874634,0.0
497,1,497,-1,1,0.2260398024712877,-1.5490992875534741,1.3325322494857672,0.6075736452720865,1.374863107692906,2.492859363555908,0.0
498,1,498,1,1,-0.538282333746038,-0.8360054175173207,1.3325322494857672,0.5975955278011007,1.374863107692906,4.65280818939209,1.0
499,1,499,-1,-1,0.8360806871536061,-1.6892405125650147,1.3325322494857672,0.6155376428079807,1.374863107692906,1.6838626861572266,0.0
500,1,500,-1,1,0.14921072031029017,-1.5314497791993555,1.3325322494857672,0.6065706524622949,1.374863107692906,2.0598578453063965,0.0
501,1,501,-1,-1,0.08553410324412698,-1.5168217118938503,1.3325322494857672,0.6057393632255529,1.374863107692906,2.6158652305603027,0.0
502,1,502,-1,-1,-0.17814527500689786,-1.4562481470620061,1.3325322494857672,0.6022970662068033,1.374863107692906,1.8088611364364624,0.0
503,1,503,1,1,-0.27048165712026195,-0.8975257447996463,1.3325322494857672,0.6010916277876928,1.374863107692906,2.6368660926818848,0.0
504,1,504,-1,1,2.65782917300404,-2.107740437537992,1.3325322494857672,0.639320311833332,1.374863107692906,3.1418895721435547,0.0
505,1,505,1,-1,0.06476760846879427,-0.974540653051797,1.3325322494857672,0.6054682595710724,1.374863107692906,4.400826454162598,0.0
506,1,506,-1,-1,-0.5009913294378854,-1.3820825580102787,1.3325322494857672,0.5980823565922165,1.374863107692906,2.1778564453125,0.0
507,1,507,1,-1,0.7137823709264548,-1.1236351254800756,1.3325322494857672,0.6139410555733658,1.374863107692906,2.984882354736328,0.0
508,1,508,1,-1,-0.3669105246325381,-0.875373689160485,1.3325322494857672,0.5998327625500673,1.374863107692906,2.896878242492676,0.0
509,1,509,1,-1,0.4168998592209793,-1.055433993523855,1.3325322494857672,0.6100652963397797,1.374863107692906,2.5848636627197266,0.0
510,1,510,-1,-1,-1.637114199131575,-1.12108750879253,1.3325322494857672,0.583250433090195,1.374863107692906,3.73087477684021,0.0
511,1,511,1,-1,-1.1263208646876681,-0.7009186681709039,1.3325322494857672,0.5899187678838226,1.374863107692906,3.17889142036438,0.0
512,1,512,-1,-1,-1.6764962784844069,-1.1120404875475827,1.3325322494857672,0.5827363056098906,1.374863107692906,4.160843849182129,0.0
513,1,513,-1,-1,0.5309841186709201,-1.6191524120334466,1.3325322494857672,0.6115546502240145,1.374863107692906,3.6708791255950928,0.0
514,1,514,1,-1,-0.024415965024627354,-0.9540530176258807,1.3325322494857672,0.6043039806229266,1.374863107692906,3.618882894515991,0.0
515,1,515,-1,-1,-2.193121873817738,-0.9933590259927028,1.3325322494857672,0.575991831474592,1.374863107692906,3.017883777618408,0.0
516,1,516,-1,1,0.7421619464016879,-1.6676650940791384,1.3325322494857672,0.6143115469204697,1.374863107692906,3.3328986167907715,0.0
517,1,517,1,1,0.7379816690714471,-1.1291942926959333,1.3325322494857672,0.6142569739906985,1.374863107692906,2.122857093811035,0.0
518,1,518,-1,-1,-1.0209511581219612,-1.2626351419792639,1.3325322494857672,0.5912943545117323,1.374863107692906,2.414855718612671,0.0
519,1,519,-1,-1,0.6383137154746036,-1.643808630253797,1.3325322494857672,0.6129558229420007,1.374863107692906,1.8878600597381592,0.0
520,1,520,-1,-1,-1.3064330994469278,-1.1970529982565727,1.3325322494857672,0.5875674281132856,1.374863107692906,3.7178757190704346,0.0
521,1,521,1,-1,0.2506583151082074,-1.0172442684992673,1.3325322494857672,0.607895036475366,1.374863107692906,2.935880184173584,0.0
522,1,522,-1,1,-0.6348399873742772,-1.3513342666082608,1.3325322494857672,0.5963349812789319,1.374863107692906,3.1378893852233887,0.0
523,1,523,1,1,0.26837367216194313,-1.0213139167824643,1.3325322494857672,0.6081263079580912,1.374863107692906,3.8878633975982666,0.0
524,1,524,1,1,1.1685244736163578,-1.2281004440111007,1.3325322494857672,0.619877649457849,1.374863107692906,2.5268609523773193,0.0
525,1,525,1,-1,-0.8608317276673264,-0.7619079785982904,1.3325322494857672,0.5933846910475427,1.374863107692906,2.2818551063537598,0.0
526,1,526,-1,-1,0.7998859160748356,-1.6809256935334465,1.3325322494857672,0.61506512518675,1.374863107692906,2.308854579925537,0.0
527,1,527,1,-1,-1.0559676036960068,-0.7170805229358715,1.3325322494857672,0.5908372197634397,1.374863107692906,1.898859977722168,0.0
528,1,528,-1,-1,0.8076421592447078,-1.682707491190958,1.3325322494857672,0.6151663818451867,1.374863107692906,4.291833877563477,0.0
529,1,529,1,1,-0.49280826096624886,-0.8464519177858105,1.3325322494857672,0.5981891853946469,1.374863107692906,3.7608726024627686,0.0
530,1,530,1,-1,2.2396738784174137,-1.4741695084433544,1.3325322494857672,0.6338613535580302,1.374863107692906,2.957880973815918,0.0
531,1,531,-1,1,1.212786075866983,-1.7757789003490283,1.3325322494857672,0.6204554784199886,1.374863107692906,1.9558591842651367,0.0
532,1,532,1,-1,-0.177798187230589,-0.9188173915315255,1.3325322494857672,0.6023015973886711,1.374863107692906,2.8658766746520996,0.0
533,1,533,-1,-1,-0.7317427986395617,-1.3290733345645815,1.3325322494857672,0.5950699287725908,1.374863107692906,1.8688603639602661,0.0
534,1,534,-1,-1,1.5588485537875052,-1.8552778664086007,1.3325322494857672,0.6249732751621853,1.374863107692906,2.444857120513916,0.0
535,1,535,-1,-1,0.12841449647340009,-1.5266723809014797,1.3325322494857672,0.6062991606991173,1.374863107692906,2.417855739593506,0.0
536,1,536,1,1,-0.1065784335216043,-0.9351783007433645,1.3325322494857672,0.6032313612082563,1.374863107692906,2.5388615131378174,0.0
537,1,537,1,-1,0.3143511584176273,-1.0318760633674071,1.3325322494857672,0.6087265375434207,1.374863107692906,2.997882843017578,0.0
538,1,538,1,1,0.43361417776094013,-1.0592736789191102,1.3325322494857672,0.6102834994061785,1.374863107692906,2.5318613052368164,1.0
539,1,539,-1,1,1.3096928053099393,-1.7980407324933934,1.3325322494857672,0.6217205820775855,1.374863107692906,2.042858123779297,0.0
540,1,540,1,1,-0.1878178615430115,-0.9165156287028083,1.3325322494857672,0.6021707919565464,1.374863107692906,4.38582706451416,0.0
541,1,541,-1,1,-1.3790182353993958,-1.1803784275426683,1.3325322494857672,0.5866198394214734,1.374863107692906,2.2478554248809814,0.0
542,1,542,1,1,-1.0225966423145096,-0.7247466442160071,1.3325322494857672,0.5912728729481456,1.374863107692906,4.742801666259766,0.0
543,1,543,-1,1,1.6335195494586343,-1.8724316098198033,1.3325322494857672,0.6259480944578416,1.374863107692906,1.8798601627349854,0.0
544,1,544,1,-1,0.7882436152591646,-1.140740683908514,1.3325322494857672,0.6149131365949421,1.374863107692906,1.9228596687316895,0.0
545,1,545,-1,-1,0.1821345062969289,-1.5390131734177415,1.3325322494857672,0.6070004678354178,1.374863107692906,2.963881492614746,0.0
546,1,546,1,-1,0.2082917076010326,-1.0075116285652563,1.3325322494857672,0.6073419464017933,1.374863107692906,2.3748538494110107,1.0
547,1,547,1,1,1.976749670711983,-1.413769424648617,1.3325322494857672,0.6304289151840293,1.374863107692906,2.3248543739318848,0.0
548,1,548,-1,1,-0.1888746600701165,-1.453783346416451,1.3325322494857672,0.6021569956011265,1.374863107692906,2.5328612327575684,0.0
549,1,549,-1,1,0.6034343943083103,-1.6357960020537041,1.3325322494857672,0.6125004783334723,1.374863107692906,2.2448554039001465,0.0
550,1,550,1,-1,0.9578350133111331,-1.1796999518382352,1.3325322494857672,0.617127128329116,1.374863107692906,3.210892915725708,0.0
551,1,551,-1,1,0.8744683783497077,-1.698059098670744,1.3325322494857672,0.6160387886914303,1.374863107692906,1.8498605489730835,0.0
552,1,552,1,-1,0.2181016480193157,-1.0097652104185846,1.3325322494857672,0.6074700137875705,1.374863107692906,2.0068585872650146,0.0
553,1,553,1,1,-1.9168543139789638,-0.5193139121979116,1.3325322494857672,0.579598465424953,1.374863107692906,3.0128836631774902,0.0
554,1,554,-1,-1,-1.21929709535896,-1.2170702572012049,1.3325322494857672,0.5887049763322145,1.374863107692906,2.09085750579834,0.0
555,1,555,-1,1,0.37562272280656994,-1.5834621216240243,1.3325322494857672,0.6095264291573541,1.374863107692906,2.8738770484924316,0.0
556,1,556,1,-1,0.502500710690027,-1.0750985905830346,1.3325322494857672,0.6111828033582232,1.374863107692906,1.8788602352142334,0.0
557,1,557,1,1,1.3623619085505643,-1.2726296161811277,1.3325322494857672,0.622408169776965,1.374863107692906,1.9838588237762451,0.0
558,1,558,1,1,0.23890623038606218,-1.014544528874015,1.3325322494857672,0.6077416146701743,1.374863107692906,4.645808219909668,0.0
559,1,559,-1,1,0.06639595805940948,-1.5124252145803436,1.3325322494857672,0.6054895174448525,1.374863107692906,2.379854202270508,0.0
560,1,560,1,1,0.4005282245412023,-1.0516730309440105,1.3325322494857672,0.6098515669627458,1.374863107692906,2.425856113433838,0.0
561,1,561,-1,1,-0.30789005125486246,-1.4264426170741158,1.3325322494857672,0.6006032664889827,1.374863107692906,2.7778725624084473,0.0
562,1,562,1,-1,0.6762386375674687,-1.1150104170112738,1.3325322494857672,0.613450927440208,1.374863107692906,5.700732231140137,0.0
563,1,563,-1,1,1.3008064878013454,-1.7959993292813048,1.3325322494857672,0.6216045724583639,1.374863107692906,2.0118584632873535,0.0
564,1,564,1,-1,-1.496346007794612,-0.6159148952400423,1.3325322494857672,0.5850881419341254,1.374863107692906,4.4858198165893555,1.0
565,1,565,-1,-1,0.8605638117474214,-1.694864881617712,1.3325322494857672,0.6158572665394914,1.374863107692906,3.0538854598999023,0.0
566,1,566,-1,-1,-1.6480833981769343,-1.1185676170439425,1.3325322494857672,0.5831072317468727,1.374863107692906,1.898859977722168,1.0
567,1,567,1,-1,-0.8093757724856068,-0.7737286627104059,1.3325322494857672,0.5940564412704604,1.374863107692906,2.659867286682129,0.0
568,1,568,-1,-1,1.3422233769548773,-1.8055137958160614,1.3325322494857672,0.6221452640930483,1.374863107692906,2.0538580417633057,0.0
569,1,569,1,-1,-0.019944264940589776,-0.9550802758693795,1.3325322494857672,0.6043623580355636,1.374863107692906,2.225855827331543,0.0
570,1,570,1,1,0.21905059935221577,-1.0099832076145236,1.3325322494857672,0.6074824022131116,1.374863107692906,2.8478760719299316,0.0
571,1,571,1,-1,0.7184543066943025,-1.1247083827290916,1.3325322494857672,0.6140020470345567,1.374863107692906,2.5088601112365723,0.0
572,1,572,1,1,0.41272945032144615,-1.054475949191656,1.3325322494857672,0.6100108522409766,1.374863107692906,1.869860291481018,1.0
573,1,573,1,1,0.9989821839371404,-1.1891524574687233,1.3325322494857672,0.6176642988265412,1.374863107692906,2.6268656253814697,0.0
574,1,574,1,-1,-0.44789535423488813,-0.8567695045676205,1.3325322494857672,0.5987755170447373,1.374863107692906,2.1928563117980957,0.0
575,1,575,1,-1,2.2483659353837466,-1.476166285285232,1.3325322494857672,0.6339748271333263,1.374863107692906,1.9628591537475586,0.0
576,1,576,1,-1,0.5126393036792578,-1.0774276719234503,1.3325322494857672,0.6113151612568675,1.374863107692906,2.3788540363311768,0.0
577,1,577,1,1,0.33594692304196205,-1.036837135625853,1.3325322494857672,0.6090084671985839,1.374863107692906,2.0978574752807617,0.0
578,1,578,1,-1,0.9329162836493843,-1.1739755137092278,1.3325322494857672,0.6168018178350051,1.374863107692906,6.341685771942139,0.0
579,1,579,1,1,1.0179077843363613,-1.1935001280767463,1.3325322494857672,0.6179113698651048,1.374863107692906,2.184856414794922,0.0
580,1,580,1,1,-1.2017967017624152,-0.6835800331187063,1.3325322494857672,0.5889334414973857,1.374863107692906,2.174856424331665,0.0
581,1,581,1,-1,-0.602727064335624,-0.8212008958579792,1.3325322494857672,0.5967542109508635,1.374863107692906,2.082857608795166,0.0
582,1,582,1,-1,1.6504879299232205,-1.3388191693844225,1.3325322494857672,0.6261696142667614,1.374863107692906,2.426856279373169,0.0
583,1,583,1,1,0.6660441774977954,-1.1126685016440123,1.3325322494857672,0.6133178402047239,1.374863107692906,2.7888731956481934,0.0
584,1,584,1,1,0.7176689733491853,-1.1245279725634936,1.3325322494857672,0.6139917946187229,1.374863107692906,3.3078975677490234,0.0
585,1,585,-1,1,0.24990307993666083,-1.5545812626485191,1.3325322494857672,0.6078851769869347,1.374863107692906,1.873860239982605,0.0
586,1,586,1,1,-0.6773228173835142,-0.8040644375069399,1.3325322494857672,0.5957803739370198,1.374863107692906,3.7658722400665283,0.0
587,1,587,-1,-1,0.9847776167022022,-1.7233998130080443,1.3325322494857672,0.6174788602087403,1.374863107692906,2.6028645038604736,0.0
588,1,588,-1,-1,-0.37417646460192494,-1.4112150161028856,1.3325322494857672,0.5997379067306213,1.374863107692906,1.8008612394332886,0.0
589,1,589,-1,-1,1.4775960265095396,-1.8366121851502906,1.3325322494857672,0.6239125349015322,1.374863107692906,1.9098598957061768,0.0
590,1,590,-1,-1,-0.9366007413897165,-1.282012483773735,1.3325322494857672,0.5923955372814037,1.374863107692906,3.9368598461151123,0.0
591,1,591,-1,-1,-0.28792273558953746,-1.4310295950091898,1.3325322494857672,0.6008639369731256,1.374863107692906,2.1938562393188477,1.0
592,1,592,-1,-1,-1.0460043417751235,-1.2568798164990356,1.3325322494857672,0.5909672887397652,1.374863107692906,1.6838626861572266,0.0
593,1,593,1,-1,-0.731893613896273,-0.7915281986003688,1.3325322494857672,0.5950679599007282,1.374863107692906,2.41385555267334,0.0
594,1,594,1,1,-1.0428167908515988,-0.7201015844223858,1.3325322494857672,0.5910089017665933,1.374863107692906,2.705869197845459,0.0
595,1,595,-1,-1,0.4850895665096113,-1.6086093174266136,1.3325322494857672,0.6109555033315665,1.374863107692906,2.5338611602783203,0.0
596,1,596,1,-1,-0.9459958553882591,-0.7423437076034602,1.3325322494857672,0.5922728853959112,1.374863107692906,2.1448569297790527,1.0
597,1,597,1,-1,-0.5270715513370238,-0.8385808068388991,1.3325322494857672,0.5977418829810938,1.374863107692906,3.0468852519989014,0.0
598,1,598,-1,-1,-1.2722581654078955,-1.2049038116056037,1.3325322494857672,0.5880135770474146,1.374863107692906,2.2998547554016113,0.0
599,1,599,-1,-1,0.7313701430372399,-1.6651859544320229,1.3325322494857672,0.6141706614526915,1.374863107692906,2.035858154296875,0.0
600,1,600,1,-1,0.48364084819944897,-1.0707660215711148,1.3325322494857672,0.6109365905187665,1.374863107692906,2.744871139526367,0.0
601,1,601,1,-1,1.3355506426425516,-1.2664704164572997,1.3325322494857672,0.6220581524896207,1.374863107692906,2.22985577583313,0.0
602,1,602,1,-1,1.1342431961913941,-1.2202252010004675,1.3325322494857672,0.6194301122258454,1.374863107692906,2.7638721466064453,0.0
603,1,603,-1,1,-2.2261107636358135,-0.985780675841166,1.3325322494857672,0.5755611661801505,1.374863107692906,3.4408957958221436,0.0
604,1,604,1,-1,-2.459080098655587,-0.394751464654749,1.3325322494857672,0.572519784435708,1.374863107692906,3.249894618988037,0.0
605,1,605,1,-1,-0.4640493870636056,-0.8530585304241874,1.3325322494857672,0.5985646284291166,1.374863107692906,1.8198609352111816,1.0
606,1,606,-1,1,1.6309115676491723,-1.871832492982288,1.3325322494857672,0.6259140476238905,1.374863107692906,2.1118571758270264,0.0
607,1,607,1,-1,-1.5934625598705758,-0.5936048617348123,1.3325322494857672,0.5838202990717076,1.374863107692906,1.9678590297698975,0.0
608,1,608,-1,1,2.221268452085492,-2.007451824499693,1.3325322494857672,0.6336210733184019,1.374863107692906,2.233855724334717,0.0
609,1,609,1,-1,0.13089006181527701,-0.9897305884240305,1.3325322494857672,0.6063314788547978,1.374863107692906,2.5868637561798096,0.0
610,1,610,1,1,-0.1757421086785279,-0.9192897227706947,1.3325322494857672,0.6023284392035942,1.374863107692906,2.2878549098968506,0.0
611,1,611,1,-1,-0.22546534161724835,-0.9078670870908004,1.3325322494857672,0.601679309424683,1.374863107692906,2.128857135772705,0.0
612,1,612,1,1,1.1263830431378061,-1.218419532715986,1.3325322494857672,0.6193274990385619,1.374863107692906,2.6178650856018066,0.0
613,1,613,1,1,1.4627947873455633,-1.2957014905737698,1.3325322494857672,0.6237193068160221,1.374863107692906,2.6458663940429688,0.0
614,1,614,1,1,-0.11817310812446431,-0.9325147220501083,1.3325322494857672,0.6030799943699258,1.374863107692906,1.802861213684082,0.0
615,1,615,1,-1,-0.4849351487522554,-0.8482605631045532,1.3325322494857672,0.598291967761938,1.374863107692906,1.8448606729507446,0.0
616,1,616,1,1,-1.3101636587043741,-0.6586855080500666,1.3325322494857672,0.5875187261893985,1.374863107692906,2.1598565578460693,0.0
617,1,617,-1,1,0.977933545092548,-1.721827563338347,1.3325322494857672,0.6173895118211103,1.374863107692906,1.9718589782714844,0.0
618,1,618,1,-1,-1.130477456848146,-0.6999637978796347,1.3325322494857672,0.5898645041605953,1.374863107692906,2.5678629875183105,0.0
619,1,619,1,-1,-0.8480806613573967,-0.7648372085855681,1.3325322494857672,0.5935511544161826,1.374863107692906,1.659862995147705,0.0
620,1,620,-1,1,-1.497685290143052,-1.1531177195510265,1.3325322494857672,0.5850706577923398,1.374863107692906,2.2038559913635254,0.0
621,1,621,-1,1,-0.3574989685789851,-1.4150462424706018,1.3325322494857672,0.5999556290842645,1.374863107692906,1.7408620119094849,1.0
622,1,622,1,-1,1.2145579306064118,-1.2386754484347169,1.3325322494857672,0.6204786097332056,1.374863107692906,4.245837211608887,0.0
623,1,623,1,1,-0.5575428326450234,-0.8315808125804847,1.3325322494857672,0.5973440847099519,1.374863107692906,2.719870090484619,0.0
624,1,624,-1,1,-0.558807469853162,-1.368800784695273,1.3325322494857672,0.5973275750499237,1.374863107692906,2.1988561153411865,0.0
625,1,625,1,1,-1.0727481213688428,-0.7132256299900919,1.3325322494857672,0.5906181524767166,1.374863107692906,1.8118610382080078,0.0
626,1,626,1,-1,3.457935650826102,-1.7540338609104715,1.3325322494857672,0.6497655888267688,1.374863107692906,3.3208980560302734,0.0
627,1,627,1,-1,-0.7667204933361959,-0.7835276175399999,1.3325322494857672,0.5946132999115262,1.374863107692906,2.490859270095825,0.0
628,1,628,1,-1,-1.898590978215257,-0.5235094445154804,1.3325322494857672,0.579836890692294,1.374863107692906,1.8868601322174072,0.0
629,1,629,1,-1,0.5101437315131002,-1.0768543783143634,1.3325322494857672,0.6112825819149234,1.374863107692906,3.6338818073272705,0.0
630,1,630,-1,-1,0.13675624965621924,-1.5285886844462706,1.3325322494857672,0.606408061108026,1.374863107692906,2.221855878829956,0.0
631,1,631,1,1,0.22822598074146283,-1.0120910158288974,1.3325322494857672,0.6076021855204433,1.374863107692906,5.160771369934082,0.0
632,1,632,1,-1,2.3845190800017155,-1.5074439733140792,1.3325322494857672,0.6357522871945588,1.374863107692906,1.9698591232299805,1.0
633,1,633,1,-1,-0.43665080088795,-0.8593526518948167,1.3325322494857672,0.5989223130995524,1.374863107692906,2.675868034362793,1.0
634,1,634,-1,1,0.2500079504468102,-1.5546053539547395,1.3325322494857672,0.607886546056624,1.374863107692906,1.8788602352142334,0.0
635,1,635,1,1,0.04269686282331306,-0.9694704661031198,1.3325322494857672,0.6051801291058044,1.374863107692906,2.278855085372925,0.0
636,1,636,-1,-1,-0.8303014303291468,-1.3064320203063866,1.3325322494857672,0.5937832597646181,1.374863107692906,2.1158571243286133,0.0
637,1,637,1,-1,-0.40504248787152175,-0.8666138499848057,1.3325322494857672,0.5993349551589575,1.374863107692906,1.9888588190078735,0.0
638,1,638,-1,-1,0.34026694268036123,-1.5753400392152266,1.3325322494857672,0.6090648644444392,1.374863107692906,2.5718631744384766,0.0
639,1,639,1,-1,1.5468592548922375,-1.3150131428871532,1.3325322494857672,0.6248167565594874,1.374863107692906,2.650866746902466,0.0
640,1,640,-1,1,2.2728391391988207,-2.0192988653263293,1.3325322494857672,0.6342943213504724,1.374863107692906,1.9408594369888306,0.0
641,1,641,-1,1,-0.28272647261555306,-1.432223302967035,1.3325322494857672,0.6009317734518924,1.374863107692906,2.2368555068969727,0.0
642,1,642,1,-1,-1.5334687331262964,-0.6073869025523745,1.3325322494857672,0.5846035100012654,1.374863107692906,3.6728789806365967,0.0
643,1,643,-1,1,-0.910864421965357,-1.287924742151788,1.3325322494857672,0.59273152129432,1.374863107692906,2.312854766845703,0.0
644,1,644,-1,1,-1.1747438418318665,-1.2273052228966401,1.3325322494857672,0.589286612760551,1.374863107692906,3.6088836193084717,0.0
645,1,645,1,-1,0.7044198066405201,-1.1214843168027793,1.3325322494857672,0.6138188286197712,1.374863107692906,2.088857650756836,0.0
646,1,646,1,1,0.0051591641667492055,-0.9608471439522046,1.3325322494857672,0.604690079754834,1.374863107692906,2.5008597373962402,0.0
647,1,647,-1,1,0.8928142553801883,-1.7022735927243704,1.3325322494857672,0.616278291523344,1.374863107692906,2.38785457611084,0.0
648,1,648,-1,1,-0.7880165182980657,-1.3161458928030256,1.3325322494857672,0.5943352833152961,1.374863107692906,2.8448758125305176,0.0
649,1,649,-1,1,-1.4314860185097098,-1.1683253019516708,1.3325322494857672,0.5859348799279438,1.374863107692906,2.2418556213378906,0.0
650,1,650,1,1,-0.33538662766971905,-0.8826154948302929,1.3325322494857672,0.6002443025698226,1.374863107692906,1.9028599262237549,0.0
651,1,651,-1,1,-0.11540416205277614,-1.470661306325187,1.3325322494857672,0.6031161425695721,1.374863107692906,1.8838601112365723,0.0
652,1,652,-1,1,1.0563285153357056,-1.73983679426119,1.3325322494857672,0.6184129470785162,1.374863107692906,2.2058560848236084,0.0
653,1,653,1,1,-0.8373023531490214,-0.7673132480671847,1.3325322494857672,0.5936918637066055,1.374863107692906,2.900878429412842,0.0
654,1,654,-1,-1,0.38418447482679124,-1.5854289642512749,1.3325322494857672,0.609638201619994,1.374863107692906,2.032858371734619,0.0
655,1,655,1,1,-0.582003423736903,-0.8259616200211081,1.3325322494857672,0.5970247551501247,1.374863107692906,6.588667869567871,0.0
656,1,656,1,1,0.7760205957136516,-1.1379327591030475,1.3325322494857672,0.6147535668021857,1.374863107692906,2.6238656044006348,0.0
657,1,657,-1,-1,0.5830066227946009,-1.6311032462137773,1.3325322494857672,0.6122337966633024,1.374863107692906,3.8288676738739014,0.0
658,1,658,1,-1,-1.0429456059117217,-0.7200719924707989,1.3325322494857672,0.591007220104188,1.374863107692906,2.6068646907806396,0.0
659,1,659,1,-1,-1.2158965654265605,-0.6803409515817072,1.3325322494857672,0.5887493697699043,1.374863107692906,2.456857681274414,0.0
660,1,660,1,1,0.933698177337289,-1.1741551337019251,1.3325322494857672,0.6168120253466001,1.374863107692906,2.042858123779297,0.0
661,1,661,-1,1,-0.17634531665954323,-1.456661641262316,1.3325322494857672,0.6023205644086501,1.374863107692906,2.31085467338562,0.0
662,1,662,1,1,-0.9349332488522795,-0.7448850573239469,1.3325322494857672,0.5924173061608227,1.374863107692906,2.371853828430176,0.0
663,1,663,-1,1,0.25205217461161333,-1.5550749619529034,1.3325322494857672,0.6079132331141968,1.374863107692906,1.8608604669570923,0.0
664,1,664,-1,-1,-1.1432992541298528,-1.2345288093007512,1.3325322494857672,0.5896971174091148,1.374863107692906,3.7198755741119385,0.0
665,1,665,-1,1,-0.6903771503271737,-1.3385760298321512,1.3325322494857672,0.5956099514653355,1.374863107692906,2.2468554973602295,1.0
666,1,666,1,1,0.9418872100587996,-1.1760363536431915,1.3325322494857672,0.6169189320114697,1.374863107692906,3.21889328956604,0.0
667,1,667,1,1,-1.322373816365327,-0.6558805379322343,1.3325322494857672,0.5873593243067273,1.374863107692906,1.7438619136810303,0.0
668,1,668,1,1,-0.05818319946211077,-0.9462958627889797,1.3325322494857672,0.6038631541494778,1.374863107692906,3.3819000720977783,0.0
669,1,669,-1,-1,0.8949740125879131,-1.7027697414718035,1.3325322494857672,0.6163064868484646,1.374863107692906,3.0688862800598145,0.0
670,1,670,-1,-1,1.5933558453667622,-1.8632050303662522,1.3325322494857672,0.6254237629770317,1.374863107692906,2.278855085372925,0.0
671,1,671,-1,1,0.39055502969918604,-1.586892435612355,1.3325322494857672,0.6097213683135386,1.374863107692906,3.264895439147949,0.0
672,1,672,-1,1,1.2280939595859013,-1.779295493466915,1.3325322494857672,0.6206553206785623,1.374863107692906,2.3318543434143066,0.0
673,1,673,-1,1,-0.20052505215518573,-1.451106968062701,1.3325322494857672,0.6020049013789399,1.374863107692906,2.667867660522461,0.0
674,1,674,-1,-1,-0.5663596107805906,-1.367065874285816,1.3325322494857672,0.5972289829174176,1.374863107692906,2.8758773803710938,0.0
675,1,675,1,-1,0.8444424051468741,-1.1536509124797205,1.3325322494857672,0.6156468038546685,1.374863107692906,2.4278564453125,0.0
676,1,676,-1,-1,-1.17157620359783,-1.2280329064235278,1.3325322494857672,0.589327965830032,1.374863107692906,1.9528592824935913,0.0
677,1,677,-1,-1,1.119135296735871,-1.7542650391632262,1.3325322494857672,0.6192328807335676,1.374863107692906,1.736862063407898,0.0
678,1,678,1,1,0.5181673189579535,-1.0786975914526018,1.3325322494857672,0.6113873287150876,1.374863107692906,1.6838626861572266,1.0
679,1,679,-1,-1,0.23379100083147875,-1.550879926295532,1.3325322494857672,0.6076748360712456,1.374863107692906,3.192892074584961,0.0
680,1,680,1,1,0.5776187445627535,-1.0923550295393585,1.3325322494857672,0.612163458674424,1.374863107692906,2.7948734760284424,0.0
681,1,681,1,1,-0.7793618965691379,-0.7806235798280818,1.3325322494857672,0.5944482681788583,1.374863107692906,2.489859104156494,0.0
682,1,682,-1,1,0.39533522549210925,-1.5879905628215898,1.3325322494857672,0.6097837730940572,1.374863107692906,2.6198654174804688,0.0
683,1,683,1,1,1.525993014961567,-1.3102196601900196,1.3325322494857672,0.6245443507461004,1.374863107692906,2.0108585357666016,0.0
684,1,684,-1,-1,-1.1860782179185383,-1.2247014411019908,1.3325322494857672,0.5891386440825629,1.374863107692906,3.731874704360962,0.0
685,1,685,1,1,-0.3673352564018095,-0.8752761179452737,1.3325322494857672,0.5998272177368444,1.374863107692906,3.000883102416992,0.0
686,1,686,-1,1,0.11360217032796056,-1.5232696294082362,1.3325322494857672,0.606105787874631,1.374863107692906,2.991882801055908,0.0
687,1,687,1,1,1.137319730008878,-1.2209319556275713,1.3325322494857672,0.6194702759400436,1.374863107692906,3.5748860836029053,0.0
688,1,688,1,1,0.6245879004919539,-1.1031449867618224,1.3325322494857672,0.6127766343671942,1.374863107692906,3.6788785457611084,0.0
689,1,689,1,-1,0.004676580927354609,-0.9607362828475854,1.3325322494857672,0.6046837796988445,1.374863107692906,2.475858688354492,1.0
690,1,690,1,1,0.827521329530586,-1.1497637299565122,1.3325322494857672,0.6154259016038579,1.374863107692906,3.68987774848938,0.0
691,1,691,-1,1,0.7726628526005269,-1.67467189389534,1.3325322494857672,0.6147097319403748,1.374863107692906,1.7508618831634521,0.0
692,1,692,1,1,1.0843680585156608,-1.2087676691087545,1.3325322494857672,0.6187789993520603,1.374863107692906,3.2768959999084473,0.0
693,1,693,1,-1,-0.692807027633175,-0.8005073378973723,1.3325322494857672,0.5955782297605065,1.374863107692906,2.429856300354004,0.0
694,1,694,1,-1,-1.5241174537120064,-0.6095351188202501,1.3325322494857672,0.5847255896324555,1.374863107692906,5.515745639801025,0.0
695,1,695,1,-1,-0.9495575874737363,-0.741525491136081,1.3325322494857672,0.5922263874868947,1.374863107692906,2.97288179397583,0.0
696,1,696,-1,-1,-2.067388432468511,-1.0222430548144321,1.3325322494857672,0.5776332637822089,1.374863107692906,3.5478880405426025,0.0
697,1,697,1,-1,-0.37632975717572525,-0.8732098624065483,1.3325322494857672,0.599709795800383,1.374863107692906,3.8078691959381104,0.0
698,1,698,1,1,-0.25708108824778425,-0.9006041813188945,1.3325322494857672,0.6012665703204962,1.374863107692906,4.092848777770996,0.0
699,1,699,-1,-1,0.20567047835591945,-1.5444199585021576,1.3325322494857672,0.6073077266244419,1.374863107692906,2.424856185913086,0.0
700,1,700,1,1,0.815878027871619,-1.1470889804460491,1.3325322494857672,0.6152738999461822,1.374863107692906,2.0698578357696533,0.0
701,1,701,1,-1,-1.6253176528058937,-0.5862869722967352,1.3325322494857672,0.5834044353353375,1.374863107692906,2.639866352081299,0.0
702,1,702,-1,1,1.4606595463162744,-1.832721463821172,1.3325322494857672,0.6236914315461463,1.374863107692906,1.8718602657318115,0.0
703,1,703,-1,-1,-1.1812672355283476,-1.225806640741227,1.3325322494857672,0.5892014507777579,1.374863107692906,1.7868614196777344,0.0
704,1,704,1,-1,0.570272667101482,-1.0906674569187327,1.3325322494857672,0.6120675566713467,1.374863107692906,2.6118650436401367,0.0
705,1,705,1,-1,1.8096683037920134,-1.3753867719040216,1.3325322494857672,0.6282476915515551,1.374863107692906,1.5338633060455322,1.0
706,1,706,1,-1,-1.4149762626392557,-0.6346075042950678,1.3325322494857672,0.586150412457602,1.374863107692906,2.8488759994506836,0.0
707,1,707,-1,1,-0.03451609900305856,-1.4892432612879292,1.3325322494857672,0.6041721248012331,1.374863107692906,1.6568630933761597,0.0
708,1,708,1,1,1.0238578081274023,-1.1948669932227742,1.3325322494857672,0.6179890465848136,1.374863107692906,3.185891628265381,0.0
709,1,709,1,1,-0.08040570538004806,-0.941190812815505,1.3325322494857672,0.6035730424753004,1.374863107692906,2.672867774963379,0.0
710,1,710,1,1,0.29616739561324995,-1.0276988108934983,1.3325322494857672,0.608489151089818,1.374863107692906,3.3148977756500244,0.0
711,1,711,1,1,1.536758362323202,-1.3126927222499827,1.3325322494857672,0.6246848908345007,1.374863107692906,1.7698615789413452,0.0
712,1,712,-1,1,-1.3437030989791974,-1.1884911731038998,1.3325322494857672,0.5870808735365504,1.374863107692906,1.6828627586364746,1.0
713,1,713,-1,-1,0.11225578002880597,-1.5229603308175925,1.3325322494857672,0.6060882109395532,1.374863107692906,2.001858711242676,0.0
714,1,714,-1,-1,-0.9960774042597593,-1.2683492480734806,1.3325322494857672,0.5916190778531362,1.374863107692906,2.676867961883545,0.0
715,1,715,1,1,0.29334031065569705,-1.027049360735138,1.3325322494857672,0.6084522438952331,1.374863107692906,3.236894130706787,0.0
716,1,716,1,1,0.6593081305910266,-1.1111210678753045,1.3325322494857672,0.6132299020643235,1.374863107692906,1.758861780166626,0.0
717,1,717,1,-1,1.1870558264252349,-1.2323575463610679,1.3325322494857672,0.6201195736498374,1.374863107692906,1.9808589220046997,0.0
718,1,718,-1,1,-0.22521563223514485,-1.445434941440333,1.3325322494857672,0.6016825693453763,1.374863107692906,2.5118603706359863,0.0
719,1,719,-1,1,-1.2632120312825894,-1.2069819285806638,1.3325322494857672,0.5881316730499815,1.374863107692906,4.6608076095581055,0.0
720,1,720,-1,-1,0.8813103384628381,-1.6996308632783466,1.3325322494857672,0.6161281095137716,1.374863107692906,1.5928634405136108,0.0
721,1,721,-1,-1,-0.48509075974858973,-1.3857353055073578,1.3325322494857672,0.5982899362823726,1.374863107692906,2.363853931427002,0.0
722,1,722,1,-1,-0.17013129700738028,-0.9205786626444756,1.3325322494857672,0.6024016875570167,1.374863107692906,3.2858963012695312,0.0
723,1,723,1,1,1.4431256497077074,-1.2911830113821248,1.3325322494857672,0.623462529003888,1.374863107692906,3.1328892707824707,0.0
724,1,724,-1,1,2.3296251457433366,-2.0323439918424087,1.3325322494857672,0.6350356546406654,1.374863107692906,2.0548579692840576,0.0
725,1,725,1,1,2.502994727897901,-1.5346607104985936,1.3325322494857672,0.6372989700343492,1.374863107692906,2.164856433868408,1.0
726,1,726,1,-1,-0.40483223596633583,-0.8666621499599281,1.3325322494857672,0.5993376999678659,1.374863107692906,2.911879062652588,0.0
727,1,727,-1,1,-0.14254355382943673,-1.4644267281105974,1.3325322494857672,0.6027618416453848,1.374863107692906,1.73786199092865,0.0
728,1,728,1,-1,0.026517618625290132,-0.9657537002951158,1.3325322494857672,0.6049689113593205,1.374863107692906,1.9768589735031128,0.0
729,1,729,-1,-1,-0.07652348650416381,-1.479593142924133,1.3325322494857672,0.603623724294073,1.374863107692906,2.472858428955078,0.0
730,1,730,-1,1,0.34844118630776993,-1.577217861741965,1.3325322494857672,0.6091715780397754,1.374863107692906,1.6948626041412354,0.0
731,1,731,1,-1,0.2516696725854216,-1.017476601904028,1.3325322494857672,0.6079082396043016,1.374863107692906,2.6218652725219727,0.0
732,1,732,-1,-1,-0.4196476914661578,-1.4007691696104003,1.3325322494857672,0.5991442862901004,1.374863107692906,3.790870428085327,0.0
733,1,733,-1,1,-1.7266057864883584,-1.1005291150925114,1.3325322494857672,0.5820821330645928,1.374863107692906,3.3338985443115234,0.0
734,1,734,1,-1,-0.2447047505439332,-0.9034473270334271,1.3325322494857672,0.6014281416601421,1.374863107692906,3.0658860206604004,0.0
735,1,735,1,1,-0.6752055861702045,-0.8045508169993905,1.3325322494857672,0.5958080140912932,1.374863107692906,2.749871253967285,1.0
736,1,736,1,1,-0.06187798528889128,-0.9454470806418783,1.3325322494857672,0.6038149192426724,1.374863107692906,4.860793113708496,0.0
737,1,737,1,-1,0.49333229051539884,-1.0729923815289284,1.3325322494857672,0.6110631109285644,1.374863107692906,2.36885404586792,0.0
738,1,738,-1,-1,1.439904893941002,-1.8279536154988845,1.3325322494857672,0.6234204824925249,1.374863107692906,2.166856527328491,0.0
739,1,739,1,1,-0.15618502363578646,-0.9237824607565625,1.3325322494857672,0.6025837541849348,1.374863107692906,4.947786331176758,0.0
740,1,740,-1,1,-0.2602592395936065,-1.4373845727071033,1.3325322494857672,0.6012250800038268,1.374863107692906,3.3188979625701904,0.0
741,1,741,1,-1,-0.3663695456341021,-0.8754979651909117,1.3325322494857672,0.5998398249544384,1.374863107692906,3.498891592025757,0.0
742,1,742,-1,-1,-0.41059160575528936,-1.402849572706648,1.3325322494857672,0.5992625122092103,1.374863107692906,2.685868263244629,0.0
743,1,743,-1,-1,0.41185891817754683,-1.5917864568227884,1.3325322494857672,0.6099994875668654,1.374863107692906,1.84786057472229,0.0
744,1,744,-1,-1,0.40156639499812297,-1.5894220139747073,1.3325322494857672,0.6098651201313422,1.374863107692906,1.8928600549697876,0.0
745,1,745,-1,1,1.8980135149135329,-1.933192305139941,1.3325322494857672,0.6294010257974167,1.374863107692906,1.9728590250015259,0.0
746,1,746,-1,1,-1.2720305600664394,-1.2049560980870047,1.3325322494857672,0.5880165484029812,1.374863107692906,2.483859062194824,0.0
747,1,747,1,1,-0.9727734662209797,-0.7361922392687863,1.3325322494857672,0.5919233074708184,1.374863107692906,3.1538901329040527,0.0
748,1,748,-1,-1,-0.6672278473980798,-1.3438939876151543,1.3325322494857672,0.5959121623435145,1.374863107692906,2.44785737991333,0.0
749,1,749,1,-1,-0.43205223079266336,-0.8604090552648802,1.3325322494857672,0.5989823467822564,1.374863107692906,2.6098647117614746,0.0
750,1,750,1,1,-1.1564339881966283,-0.6940009514679206,1.3325322494857672,0.5895256453121308,1.374863107692906,1.8018611669540405,1.0
751,1,751,-1,1,-0.11992319698134755,-1.4696231741169012,1.3325322494857672,0.6030571472072294,1.374863107692906,2.3498542308807373,0.0
752,1,752,1,-1,-0.8543630082550304,-0.7633940007411623,1.3325322494857672,0.5934691392652826,1.374863107692906,4.489819526672363,1.0
