,subj_idx,trial_idx,S,X,M,v,a,z,t,rt,response
0,1,0,-1,1,0.7858143069645172,0.47556553741844065,1.2369403071801852,0.7394270839711269,0.252369299605287,1.7023810148239136,1.0
1,1,1,-1,1,-0.6696402494058433,-0.1227369918062457,1.2369403071801852,0.7394270839711269,0.252369299605287,1.5613744258880615,0.0
2,1,2,-1,1,-0.15703420718334304,0.08798308201207826,1.2369403071801852,0.7394270839711269,0.252369299605287,0.5783686637878418,1.0
3,1,3,1,-1,1.0882519438928069,-0.04701080111337247,1.2369403071801852,0.7394270839711269,0.252369299605287,1.0883620977401733,1.0
4,1,4,-1,-1,-2.163206104507732,-0.7367061636775944,1.2369403071801852,0.7394270839711269,0.252369299605287,1.1883608102798462,0.0
5,1,5,-1,1,-0.871788002938609,-0.20583509451675447,1.2369403071801852,0.7394270839711269,0.252369299605287,0.7073670029640198,1.0
6,1,6,-1,-1,-1.4404466379868015,-0.43959704752699685,1.2369403071801852,0.7394270839711269,0.252369299605287,5.143197536468506,0.0
7,1,7,-1,-1,1.9157224771552535,0.9400437398177264,1.2369403071801852,0.7394270839711269,0.252369299605287,0.41836947202682495,1.0
8,1,8,1,-1,-1.0618314957274206,-0.9308586370615757,1.2369403071801852,0.7394270839711269,0.252369299605287,3.70630145072937,0.0
9,1,9,1,-1,0.33817206973250974,-0.3553506828818578,1.2369403071801852,0.7394270839711269,0.252369299605287,1.691380500793457,0.0
10,1,10,-1,-1,-0.9209275558046686,-0.22603518845720194,1.2369403071801852,0.7394270839711269,0.252369299605287,1.0393627882003784,1.0
11,1,11,-1,1,0.205151141235966,0.23686880919534284,1.2369403071801852,0.7394270839711269,0.252369299605287,0.5993683934211731,1.0
12,1,12,-1,-1,0.33377006489250904,0.28974096998734544,1.2369403071801852,0.7394270839711269,0.252369299605287,0.8373653888702393,1.0
13,1,13,1,-1,-0.6310055452882873,-0.7537564014231233,1.2369403071801852,0.7394270839711269,0.252369299605287,1.663379192352295,0.0
14,1,14,1,-1,1.074369586406646,-0.05271750597696129,1.2369403071801852,0.7394270839711269,0.252369299605287,0.3623693585395813,1.0
15,1,15,-1,1,0.09745911847639757,0.1925991964394111,1.2369403071801852,0.7394270839711269,0.252369299605287,2.3753979206085205,0.0
16,1,16,1,-1,-0.7246328672722812,-0.7922443523538998,1.2369403071801852,0.7394270839711269,0.252369299605287,1.3283635377883911,0.0
17,1,17,-1,1,2.676039131328135,1.2525917168138083,1.2369403071801852,0.7394270839711269,0.252369299605287,0.35136932134628296,1.0
18,1,18,1,1,0.3406932743499959,-0.3543142760131358,1.2369403071801852,0.7394270839711269,0.252369299605287,1.5183724164962769,0.0
19,1,19,1,-1,0.9826612746938992,-0.0904165977201597,1.2369403071801852,0.7394270839711269,0.252369299605287,1.677379846572876,1.0
20,1,20,1,-1,1.0174216402374772,-0.0761274434965048,1.2369403071801852,0.7394270839711269,0.252369299605287,0.8183655738830566,1.0
21,1,21,1,1,0.36197061190221724,-0.345567671856419,1.2369403071801852,0.7394270839711269,0.252369299605287,0.8643649816513062,1.0
22,1,22,1,1,0.9543748108248936,-0.10204448592977433,1.2369403071801852,0.7394270839711269,0.252369299605287,1.562374472618103,1.0
23,1,23,1,-1,-0.36970037304644315,-0.6463400999195779,1.2369403071801852,0.7394270839711269,0.252369299605287,0.9953633546829224,0.0
24,1,24,1,-1,-0.9244147335916574,-0.8743698954627119,1.2369403071801852,0.7394270839711269,0.252369299605287,2.191403865814209,0.0
25,1,25,1,-1,1.453367101908301,0.1030793006646687,1.2369403071801852,0.7394270839711269,0.252369299605287,0.559368908405304,1.0
26,1,26,-1,1,-0.41145449168559456,-0.016603006943781112,1.2369403071801852,0.7394270839711269,0.252369299605287,0.5283693075180054,1.0
27,1,27,-1,1,-0.9451799090338173,-0.23600475034640045,1.2369403071801852,0.7394270839711269,0.252369299605287,0.695367157459259,1.0
28,1,28,-1,1,0.3655378560657315,0.30279994851994907,1.2369403071801852,0.7394270839711269,0.252369299605287,0.636367917060852,1.0
29,1,29,1,-1,-1.4012297893104328,-1.0703771514504143,1.2369403071801852,0.7394270839711269,0.252369299605287,0.6633675694465637,1.0
30,1,30,-1,1,0.09655911263084677,0.19222922557954936,1.2369403071801852,0.7394270839711269,0.252369299605287,2.226405620574951,1.0
31,1,31,-1,-1,-0.6090288905344078,-0.09782111301511348,1.2369403071801852,0.7394270839711269,0.252369299605287,0.801365852355957,1.0
32,1,32,-1,1,-0.8644570167119783,-0.20282150155920947,1.2369403071801852,0.7394270839711269,0.252369299605287,0.3433693051338196,1.0
33,1,33,1,-1,-0.07106036993748238,-0.5235763431222872,1.2369403071801852,0.7394270839711269,0.252369299605287,0.7733662128448486,1.0
34,1,34,-1,-1,0.9063975624143348,0.5251344273587006,1.2369403071801852,0.7394270839711269,0.252369299605287,2.198404312133789,1.0
35,1,35,-1,1,1.1000694752694962,0.6047483148510012,1.2369403071801852,0.7394270839711269,0.252369299605287,0.8363653421401978,1.0
36,1,36,1,-1,0.07128758864205105,-0.46506050470236626,1.2369403071801852,0.7394270839711269,0.252369299605287,2.915358781814575,0.0
37,1,37,-1,1,-0.5637158358336518,-0.07919400087636791,1.2369403071801852,0.7394270839711269,0.252369299605287,4.433248996734619,1.0
38,1,38,1,-1,-1.0458036973475338,-0.9242699928015281,1.2369403071801852,0.7394270839711269,0.252369299605287,2.8673622608184814,0.0
39,1,39,1,-1,0.3923529735729381,-0.3330782102295691,1.2369403071801852,0.7394270839711269,0.252369299605287,1.0143630504608154,1.0
40,1,40,1,-1,-0.04502083566134619,-0.5128721138840362,1.2369403071801852,0.7394270839711269,0.252369299605287,0.6163681745529175,1.0
41,1,41,1,1,-0.39778348242178097,-0.6578843939644978,1.2369403071801852,0.7394270839711269,0.252369299605287,0.3343693017959595,1.0
42,1,42,1,1,1.9273668157624937,0.297929237002067,1.2369403071801852,0.7394270839711269,0.252369299605287,1.1233617067337036,1.0
43,1,43,-1,-1,0.9945412633492952,0.561368192936464,1.2369403071801852,0.7394270839711269,0.252369299605287,0.38236939907073975,1.0
44,1,44,1,1,-0.8686937432760984,-0.851464330125212,1.2369403071801852,0.7394270839711269,0.252369299605287,1.5473737716674805,0.0
45,1,45,-1,-1,-0.06837734920617858,0.12442779416656317,1.2369403071801852,0.7394270839711269,0.252369299605287,0.33236929774284363,1.0
46,1,46,1,1,1.876364645060128,0.2769634654541921,1.2369403071801852,0.7394270839711269,0.252369299605287,2.304403066635132,0.0
47,1,47,1,-1,-1.429020617854609,-1.0818012958419065,1.2369403071801852,0.7394270839711269,0.252369299605287,1.2283602952957153,0.0
48,1,48,-1,-1,0.26327428620120497,0.2607618428094728,1.2369403071801852,0.7394270839711269,0.252369299605287,2.0783987045288086,1.0
49,1,49,-1,1,-1.7294034084453316,-0.5583802591671294,1.2369403071801852,0.7394270839711269,0.252369299605287,0.35036933422088623,1.0
50,1,50,1,-1,-0.6030855001734706,-0.7422791391924697,1.2369403071801852,0.7394270839711269,0.252369299605287,1.1243616342544556,0.0
51,1,51,-1,1,0.6184183756979605,0.40675307699475904,1.2369403071801852,0.7394270839711269,0.252369299605287,0.32436928153038025,1.0
52,1,52,-1,-1,0.8645236201513536,0.5079210520218379,1.2369403071801852,0.7394270839711269,0.252369299605287,0.3893694281578064,1.0
53,1,53,-1,1,1.8807691571241005,0.9256752666229391,1.2369403071801852,0.7394270839711269,0.252369299605287,0.5753687024116516,1.0
54,1,54,-1,-1,-2.0898158236449484,-0.7065371759420953,1.2369403071801852,0.7394270839711269,0.252369299605287,0.4173694849014282,1.0
55,1,55,-1,1,-0.059382539150763566,0.12812534527353225,1.2369403071801852,0.7394270839711269,0.252369299605287,2.249406576156616,1.0
56,1,56,1,-1,-0.5133035144631093,-0.7053719139588055,1.2369403071801852,0.7394270839711269,0.252369299605287,1.0353628396987915,0.0
57,1,57,-1,1,-1.7694141527960148,-0.5748277184412096,1.2369403071801852,0.7394270839711269,0.252369299605287,0.9153643846511841,1.0
58,1,58,-1,1,-1.875757082262277,-0.6185427512372159,1.2369403071801852,0.7394270839711269,0.252369299605287,1.4603697061538696,0.0
59,1,59,1,-1,-0.6204050629898946,-0.7493987968916933,1.2369403071801852,0.7394270839711269,0.252369299605287,0.4653695821762085,1.0
60,1,60,-1,-1,0.14210677657271298,0.21095277996152495,1.2369403071801852,0.7394270839711269,0.252369299605287,3.602308988571167,1.0
61,1,61,1,1,0.7800739937821883,-0.1736953796152816,1.2369403071801852,0.7394270839711269,0.252369299605287,0.9133644104003906,1.0
62,1,62,-1,-1,0.3411957676358966,0.29279349863772053,1.2369403071801852,0.7394270839711269,0.252369299605287,3.648305654525757,0.0
63,1,63,1,1,-0.8595313274801598,-0.8476978803102558,1.2369403071801852,0.7394270839711269,0.252369299605287,1.7613837718963623,0.0
64,1,64,1,1,-0.4194050595406481,-0.6667725067670751,1.2369403071801852,0.7394270839711269,0.252369299605287,4.780223846435547,0.0
65,1,65,-1,1,0.6852312939800063,0.43421826841421424,1.2369403071801852,0.7394270839711269,0.252369299605287,0.7453665137290955,1.0
66,1,66,-1,-1,-1.7558620132645715,-0.5692567582744499,1.2369403071801852,0.7394270839711269,0.252369299605287,2.7333719730377197,0.0
67,1,67,-1,-1,0.2017265820667054,0.23546105489378782,1.2369403071801852,0.7394270839711269,0.252369299605287,3.8312923908233643,1.0
68,1,68,1,1,0.7991836821786767,-0.16583984413994018,1.2369403071801852,0.7394270839711269,0.252369299605287,0.4073694348335266,1.0
69,1,69,-1,1,0.10399324839120253,0.19528522084134076,1.2369403071801852,0.7394270839711269,0.252369299605287,0.9093644618988037,1.0
70,1,70,1,-1,-1.8920403232074545,-1.2721376135104765,1.2369403071801852,0.7394270839711269,0.252369299605287,0.9663636684417725,0.0
71,1,71,-1,-1,0.19072414386908304,0.2309382159137155,1.2369403071801852,0.7394270839711269,0.252369299605287,1.556374192237854,1.0
72,1,72,1,1,0.2759180455025759,-0.3809418220817452,1.2369403071801852,0.7394270839711269,0.252369299605287,0.4433695077896118,1.0
73,1,73,-1,1,1.2644555231155479,0.6723234842474382,1.2369403071801852,0.7394270839711269,0.252369299605287,0.827365517616272,1.0
74,1,74,-1,-1,-0.2155025001963396,0.06394816629724896,1.2369403071801852,0.7394270839711269,0.252369299605287,3.2033379077911377,0.0
75,1,75,1,1,2.90909178759845,0.7014928735866934,1.2369403071801852,0.7394270839711269,0.252369299605287,0.7303667068481445,1.0
76,1,76,1,-1,0.9314213703316516,-0.11148009588503316,1.2369403071801852,0.7394270839711269,0.252369299605287,1.3903664350509644,0.0
77,1,77,-1,-1,-1.1514397293390632,-0.3207932252774279,1.2369403071801852,0.7394270839711269,0.252369299605287,1.2293603420257568,1.0
78,1,78,-1,-1,-0.39575965428790516,-0.010151234973500317,1.2369403071801852,0.7394270839711269,0.252369299605287,1.419367790222168,1.0
79,1,79,1,-1,0.1989321207415517,-0.412588892955665,1.2369403071801852,0.7394270839711269,0.252369299605287,0.6543676853179932,1.0
80,1,80,-1,-1,-0.6543514180886808,-0.11645211921719023,1.2369403071801852,0.7394270839711269,0.252369299605287,0.5513690114021301,1.0
81,1,81,1,-1,-0.038727894974635024,-0.5102852366004819,1.2369403071801852,0.7394270839711269,0.252369299605287,1.0513626337051392,0.0
82,1,82,1,-1,0.8002081331733814,-0.1654187168580778,1.2369403071801852,0.7394270839711269,0.252369299605287,1.7853848934173584,0.0
83,1,83,-1,-1,-0.6124569389651119,-0.0992303016685262,1.2369403071801852,0.7394270839711269,0.252369299605287,0.6313679814338684,1.0
84,1,84,1,-1,0.16893903232088509,-0.4249183336673667,1.2369403071801852,0.7394270839711269,0.252369299605287,0.5403691530227661,1.0
85,1,85,1,1,0.5398121291159402,-0.27246128108357626,1.2369403071801852,0.7394270839711269,0.252369299605287,2.5033886432647705,1.0
86,1,86,1,1,0.03397350120515123,-0.48039943286848025,1.2369403071801852,0.7394270839711269,0.252369299605287,0.6013683676719666,1.0
87,1,87,-1,-1,0.07757754927197798,0.1844263592402722,1.2369403071801852,0.7394270839711269,0.252369299605287,3.9132864475250244,0.0
88,1,88,-1,1,-0.20993776548577886,0.06623569553491598,1.2369403071801852,0.7394270839711269,0.252369299605287,1.0093631744384766,1.0
89,1,89,1,1,-0.7717911399365049,-0.8116299894288459,1.2369403071801852,0.7394270839711269,0.252369299605287,0.5363692045211792,1.0
90,1,90,1,-1,-0.2804397731606008,-0.6096472039180741,1.2369403071801852,0.7394270839711269,0.252369299605287,5.165195941925049,0.0
91,1,91,-1,-1,-0.4306808064267393,-0.02450648471775127,1.2369403071801852,0.7394270839711269,0.252369299605287,1.8213865756988525,0.0
92,1,92,1,-1,-0.847091245975645,-0.8425840605792752,1.2369403071801852,0.7394270839711269,0.252369299605287,1.2203603982925415,1.0
93,1,93,-1,-1,1.3932440083403388,0.7252653477413891,1.2369403071801852,0.7394270839711269,0.252369299605287,0.3413693308830261,1.0
94,1,94,-1,-1,0.986605331758655,0.5581059214202203,1.2369403071801852,0.7394270839711269,0.252369299605287,0.38736939430236816,1.0
95,1,95,1,-1,-1.756951005552185,-1.2166056286260114,1.2369403071801852,0.7394270839711269,0.252369299605287,1.3823660612106323,0.0
96,1,96,1,1,1.7173016155523846,0.21157646148070147,1.2369403071801852,0.7394270839711269,0.252369299605287,2.0733983516693115,0.0
97,1,97,-1,-1,-1.7023565550436661,-0.5472619451483522,1.2369403071801852,0.7394270839711269,0.252369299605287,1.6213772296905518,0.0
98,1,98,-1,1,-0.030629749801116643,0.13994492872590691,1.2369403071801852,0.7394270839711269,0.252369299605287,0.8363653421401978,1.0
99,1,99,-1,1,-0.11187818195956246,0.10654564309161968,1.2369403071801852,0.7394270839711269,0.252369299605287,0.41336947679519653,1.0
100,1,100,1,-1,-1.303362725123615,-1.0301463439858438,1.2369403071801852,0.7394270839711269,0.252369299605287,2.260406255722046,0.0
101,1,101,1,-1,-1.3789895621833645,-1.0612347264379562,1.2369403071801852,0.7394270839711269,0.252369299605287,3.0543487071990967,0.0
102,1,102,-1,-1,-1.0598850234724257,-0.28315727722073525,1.2369403071801852,0.7394270839711269,0.252369299605287,1.913390874862671,0.0
103,1,103,-1,1,-2.2675518241804764,-0.7796001913342618,1.2369403071801852,0.7394270839711269,0.252369299605287,0.3853694200515747,1.0
104,1,104,1,1,0.06173253310252334,-0.46898835931737975,1.2369403071801852,0.7394270839711269,0.252369299605287,1.055362582206726,0.0
105,1,105,-1,-1,-0.11781522279147505,0.10410506771927555,1.2369403071801852,0.7394270839711269,0.252369299605287,3.1853392124176025,0.0
106,1,106,-1,-1,-1.6546827709607979,-0.5276643936688861,1.2369403071801852,0.7394270839711269,0.252369299605287,0.3483693301677704,1.0
107,1,107,-1,-1,0.24999817003879832,0.2553043492426125,1.2369403071801852,0.7394270839711269,0.252369299605287,1.318363070487976,1.0
108,1,108,-1,1,0.8568956428818321,0.5047853731555705,1.2369403071801852,0.7394270839711269,0.252369299605287,1.703381061553955,0.0
109,1,109,-1,1,-2.8330776157809097,-1.012074307393323,1.2369403071801852,0.7394270839711269,0.252369299605287,2.8013670444488525,0.0
110,1,110,-1,1,0.002745568900944434,0.15366472334657924,1.2369403071801852,0.7394270839711269,0.252369299605287,1.5143722295761108,1.0
111,1,111,-1,-1,1.2622848358317162,0.6714311666643245,1.2369403071801852,0.7394270839711269,0.252369299605287,2.880361318588257,1.0
112,1,112,1,1,0.09633726635302947,-0.4547631818040703,1.2369403071801852,0.7394270839711269,0.252369299605287,1.576375126838684,1.0
113,1,113,-1,-1,-0.699262494934108,-0.13491398788166659,1.2369403071801852,0.7394270839711269,0.252369299605287,1.3013622760772705,1.0
114,1,114,-1,-1,0.7820586899352427,0.474021693155094,1.2369403071801852,0.7394270839711269,0.252369299605287,0.6283680200576782,1.0
115,1,115,1,1,-0.7607009040773902,-0.8070710589317276,1.2369403071801852,0.7394270839711269,0.252369299605287,2.6983745098114014,1.0
116,1,116,1,1,-0.11836682066851183,-0.5430228926535909,1.2369403071801852,0.7394270839711269,0.252369299605287,2.0223960876464844,0.0
117,1,117,1,-1,1.1058145216177035,-0.039791245802270725,1.2369403071801852,0.7394270839711269,0.252369299605287,2.770369291305542,0.0
118,1,118,1,-1,-2.069600323384299,-1.3451282793680706,1.2369403071801852,0.7394270839711269,0.252369299605287,2.1234006881713867,0.0
119,1,119,-1,-1,0.5707493043724329,0.38715746281702734,1.2369403071801852,0.7394270839711269,0.252369299605287,0.4083694517612457,1.0
120,1,120,1,1,1.2695287415064933,0.02750775120233545,1.2369403071801852,0.7394270839711269,0.252369299605287,0.9533638954162598,1.0
121,1,121,1,1,1.943261750418448,0.304463264165536,1.2369403071801852,0.7394270839711269,0.252369299605287,0.36036935448646545,1.0
122,1,122,1,1,0.2091235634052554,-0.4083994348269629,1.2369403071801852,0.7394270839711269,0.252369299605287,2.404395818710327,0.0
123,1,123,-1,1,0.2755086901480972,0.26579111341977374,1.2369403071801852,0.7394270839711269,0.252369299605287,1.836387276649475,0.0
124,1,124,-1,-1,0.450473624861489,0.33771500998286,1.2369403071801852,0.7394270839711269,0.252369299605287,0.35036933422088623,1.0
125,1,125,1,1,0.518792677903546,-0.2811018743389594,1.2369403071801852,0.7394270839711269,0.252369299605287,3.1833393573760986,0.0
126,1,126,-1,1,-0.9247317008585694,-0.22759898142986779,1.2369403071801852,0.7394270839711269,0.252369299605287,3.4143226146698,1.0
127,1,127,1,1,0.04780865413763748,-0.47471213266698187,1.2369403071801852,0.7394270839711269,0.252369299605287,3.1863391399383545,0.0
128,1,128,1,-1,0.39866816991209864,-0.3304821841800215,1.2369403071801852,0.7394270839711269,0.252369299605287,0.7143669128417969,1.0
129,1,129,-1,-1,1.0297381603314384,0.575836794785355,1.2369403071801852,0.7394270839711269,0.252369299605287,1.2323602437973022,1.0
130,1,130,-1,-1,-0.3303920416015663,0.016719825911525515,1.2369403071801852,0.7394270839711269,0.252369299605287,2.3304011821746826,1.0
131,1,131,-1,1,0.7515795159864147,0.4614924343180887,1.2369403071801852,0.7394270839711269,0.252369299605287,0.29836928844451904,1.0
132,1,132,-1,1,-0.17978658911554773,0.07863012241856682,1.2369403071801852,0.7394270839711269,0.252369299605287,1.7933852672576904,0.0
133,1,133,-1,1,-2.035088363836444,-0.684040027214122,1.2369403071801852,0.7394270839711269,0.252369299605287,0.3833693861961365,1.0
134,1,134,-1,-1,0.5410340204548056,0.3749422208867792,1.2369403071801852,0.7394270839711269,0.252369299605287,0.4283694922924042,1.0
135,1,135,1,1,-2.165773558039212,-1.384662794056904,1.2369403071801852,0.7394270839711269,0.252369299605287,0.5583689212799072,1.0
136,1,136,1,-1,-0.36130555920630675,-0.6428891928947309,1.2369403071801852,0.7394270839711269,0.252369299605287,0.5853685736656189,1.0
137,1,137,1,-1,-0.9882246320038789,-0.9006006172963159,1.2369403071801852,0.7394270839711269,0.252369299605287,1.556374192237854,0.0
138,1,138,-1,-1,0.051399651460457704,0.1736652520646027,1.2369403071801852,0.7394270839711269,0.252369299605287,0.5583689212799072,1.0
139,1,139,1,-1,-1.856734305342866,-1.2576241546788152,1.2369403071801852,0.7394270839711269,0.252369299605287,0.39936941862106323,1.0
140,1,140,1,-1,-0.10496456002007576,-0.5375135441080171,1.2369403071801852,0.7394270839711269,0.252369299605287,1.411367416381836,1.0
141,1,141,-1,-1,-2.0779097259688553,-0.7016428641811241,1.2369403071801852,0.7394270839711269,0.252369299605287,0.5143694877624512,1.0
142,1,142,-1,1,0.9200223944979465,0.5307352696936312,1.2369403071801852,0.7394270839711269,0.252369299605287,2.9513561725616455,1.0
143,1,143,-1,1,0.14806860581458745,0.2134035452558496,1.2369403071801852,0.7394270839711269,0.252369299605287,0.8573651313781738,1.0
144,1,144,-1,-1,0.7525637456105291,0.46189702755727163,1.2369403071801852,0.7394270839711269,0.252369299605287,1.5843755006790161,1.0
145,1,145,1,1,-0.697988025444665,-0.7812912956703506,1.2369403071801852,0.7394270839711269,0.252369299605287,1.5153722763061523,0.0
146,1,146,-1,1,1.139825154087606,0.6210909227900888,1.2369403071801852,0.7394270839711269,0.252369299605287,1.6003762483596802,1.0
147,1,147,-1,-1,-1.2944048281971603,-0.37956275529351363,1.2369403071801852,0.7394270839711269,0.252369299605287,1.1103618144989014,0.0
148,1,148,1,-1,-1.1000072531316736,-0.946551777125662,1.2369403071801852,0.7394270839711269,0.252369299605287,0.9733636379241943,1.0
149,1,149,1,-1,0.3852939180348628,-0.33598001899019475,1.2369403071801852,0.7394270839711269,0.252369299605287,0.7583663463592529,1.0
150,1,150,1,1,-0.8444827187399254,-0.84151175747242,1.2369403071801852,0.7394270839711269,0.252369299605287,1.7763844728469849,0.0
151,1,151,-1,-1,0.09968072149105021,0.19351244426070663,1.2369403071801852,0.7394270839711269,0.252369299605287,1.1183617115020752,1.0
152,1,152,1,1,-0.49636251778166174,-0.6984078757360154,1.2369403071801852,0.7394270839711269,0.252369299605287,2.582382917404175,0.0
153,1,153,-1,1,-0.8014599582680586,-0.17692491877980082,1.2369403071801852,0.7394270839711269,0.252369299605287,0.7013670802116394,0.0
154,1,154,-1,-1,-0.5985288429951676,-0.0935047948090861,1.2369403071801852,0.7394270839711269,0.252369299605287,0.4923696219921112,1.0
155,1,155,1,1,0.8255316325476679,-0.15500883242840546,1.2369403071801852,0.7394270839711269,0.252369299605287,0.6803673505783081,1.0
156,1,156,-1,1,-1.335255479415358,-0.3963554801761611,1.2369403071801852,0.7394270839711269,0.252369299605287,0.4643695652484894,1.0
157,1,157,-1,-1,0.4946678527445094,0.3558821991979487,1.2369403071801852,0.7394270839711269,0.252369299605287,0.5473690629005432,1.0
158,1,158,1,1,-0.9905727836704659,-0.901565886239254,1.2369403071801852,0.7394270839711269,0.252369299605287,0.3053692877292633,1.0
159,1,159,1,1,0.7982021750525296,-0.1662433182253767,1.2369403071801852,0.7394270839711269,0.252369299605287,1.129361629486084,1.0
160,1,160,1,1,-0.46650196230606855,-0.6861329161456211,1.2369403071801852,0.7394270839711269,0.252369299605287,4.666232109069824,1.0
161,1,161,1,-1,0.3396126413249289,-0.3547584983828632,1.2369403071801852,0.7394270839711269,0.252369299605287,1.3563648462295532,1.0
162,1,162,1,1,0.4532499965893853,-0.3080449017463031,1.2369403071801852,0.7394270839711269,0.252369299605287,0.5543689727783203,1.0
163,1,163,-1,-1,-0.7319439269305971,-0.1483485422870935,1.2369403071801852,0.7394270839711269,0.252369299605287,2.144401788711548,0.0
164,1,164,1,-1,0.21788119158417302,-0.40479938351205086,1.2369403071801852,0.7394270839711269,0.252369299605287,1.5313730239868164,0.0
165,1,165,-1,1,1.288279042882327,0.6821167629651497,1.2369403071801852,0.7394270839711269,0.252369299605287,2.305402994155884,1.0
166,1,166,-1,1,-0.5251835424855831,-0.06335429742010232,1.2369403071801852,0.7394270839711269,0.252369299605287,0.9803634881973267,0.0
167,1,167,-1,1,-0.8431248913333186,-0.19405237543848813,1.2369403071801852,0.7394270839711269,0.252369299605287,0.7443665266036987,0.0
168,1,168,1,1,1.7468396602510212,0.2237188446105593,1.2369403071801852,0.7394270839711269,0.252369299605287,0.47236958146095276,1.0
169,1,169,-1,1,0.06333950731284844,0.1785734410037878,1.2369403071801852,0.7394270839711269,0.252369299605287,1.9163910150527954,0.0
170,1,170,1,-1,-0.05756745319677282,-0.5180297280271949,1.2369403071801852,0.7394270839711269,0.252369299605287,1.8433876037597656,0.0
171,1,171,1,-1,-0.07273573007903003,-0.5242650435737461,1.2369403071801852,0.7394270839711269,0.252369299605287,1.1233617067337036,0.0
172,1,172,-1,-1,-0.26276746326536704,0.04451867135071309,1.2369403071801852,0.7394270839711269,0.252369299605287,0.9843634366989136,1.0
173,1,173,-1,1,-1.3054983616559,-0.3841230413549039,1.2369403071801852,0.7394270839711269,0.252369299605287,2.367398500442505,1.0
174,1,174,-1,-1,-0.1979457789292351,0.07116531415873706,1.2369403071801852,0.7394270839711269,0.252369299605287,1.0403627157211304,1.0
175,1,175,-1,1,-1.601180656437342,-0.5056709550567726,1.2369403071801852,0.7394270839711269,0.252369299605287,0.46836957335472107,1.0
176,1,176,-1,-1,-0.9328250847243661,-0.2309259778075275,1.2369403071801852,0.7394270839711269,0.252369299605287,0.5753687024116516,1.0
177,1,177,-1,1,1.0435439406016196,0.5815120205884667,1.2369403071801852,0.7394270839711269,0.252369299605287,0.9823634624481201,1.0
178,1,178,-1,-1,0.09595626140206952,0.19198140786971776,1.2369403071801852,0.7394270839711269,0.252369299605287,2.643378496170044,1.0
179,1,179,1,-1,-1.6711189630871364,-1.1813221305115627,1.2369403071801852,0.7394270839711269,0.252369299605287,1.4663699865341187,0.0
180,1,180,1,-1,-0.9755510449268351,-0.8953908090138407,1.2369403071801852,0.7394270839711269,0.252369299605287,5.325184345245361,0.0
181,1,181,1,1,0.16288909267409196,-0.42740531904007384,1.2369403071801852,0.7394270839711269,0.252369299605287,2.709373712539673,0.0
182,1,182,-1,1,0.3884802850854515,0.3122310319220223,1.2369403071801852,0.7394270839711269,0.252369299605287,3.4583194255828857,0.0
183,1,183,1,-1,1.331001848639486,0.052777874076313125,1.2369403071801852,0.7394270839711269,0.252369299605287,0.497369647026062,1.0
184,1,184,1,1,0.5284785411123832,-0.27712024782220746,1.2369403071801852,0.7394270839711269,0.252369299605287,1.6883803606033325,0.0
185,1,185,-1,1,-1.2498464977207249,-0.3612458922177167,1.2369403071801852,0.7394270839711269,0.252369299605287,0.4383695125579834,1.0
186,1,186,1,-1,-1.1868949339922001,-0.9822692229159049,1.2369403071801852,0.7394270839711269,0.252369299605287,0.5853685736656189,0.0
187,1,187,1,1,1.1378860021242656,-0.026607427854076715,1.2369403071801852,0.7394270839711269,0.252369299605287,2.4803903102874756,1.0
188,1,188,-1,-1,-1.3758905420156091,-0.41305958173846863,1.2369403071801852,0.7394270839711269,0.252369299605287,3.3093302249908447,0.0
189,1,189,-1,1,0.47606686632278017,0.34823577892774227,1.2369403071801852,0.7394270839711269,0.252369299605287,0.5393691658973694,1.0
190,1,190,1,1,-1.7632203814936993,-1.2191828190068794,1.2369403071801852,0.7394270839711269,0.252369299605287,2.2324059009552,0.0
191,1,191,-1,-1,0.7892226248424942,0.47696661531391327,1.2369403071801852,0.7394270839711269,0.252369299605287,0.4613695740699768,1.0
192,1,192,-1,1,-1.1938106344555128,-0.33821089014765976,1.2369403071801852,0.7394270839711269,0.252369299605287,1.7413828372955322,0.0
193,1,193,1,-1,0.6422660079083241,-0.23034494392824117,1.2369403071801852,0.7394270839711269,0.252369299605287,0.4933696389198303,1.0
194,1,194,-1,-1,-0.8404665623486095,-0.19295960002471696,1.2369403071801852,0.7394270839711269,0.252369299605287,1.3343638181686401,1.0
195,1,195,1,-1,-1.2883938253507004,-1.0239929875964968,1.2369403071801852,0.7394270839711269,0.252369299605287,1.6023763418197632,0.0
196,1,196,-1,-1,0.2854279542763405,0.26986868546762643,1.2369403071801852,0.7394270839711269,0.252369299605287,0.5013696551322937,1.0
197,1,197,-1,-1,-1.3175710138972365,-0.38908581971086637,1.2369403071801852,0.7394270839711269,0.252369299605287,0.780366063117981,0.0
198,1,198,-1,-1,-0.06063932972581994,0.12760870875164926,1.2369403071801852,0.7394270839711269,0.252369299605287,1.3713655471801758,1.0
199,1,199,-1,-1,-0.7441901568766086,-0.15338267428255603,1.2369403071801852,0.7394270839711269,0.252369299605287,0.30336928367614746,1.0
200,1,200,1,-1,-0.026040118163434156,-0.5050695952579513,1.2369403071801852,0.7394270839711269,0.252369299605287,0.4423695206642151,1.0
201,1,201,1,-1,0.3027679147301019,-0.3699044835417894,1.2369403071801852,0.7394270839711269,0.252369299605287,0.6063683032989502,1.0
202,1,202,1,1,-0.6170379771034169,-0.7480146684809649,1.2369403071801852,0.7394270839711269,0.252369299605287,1.6603790521621704,0.0
203,1,203,1,-1,0.11574469033365643,-0.4467852543569215,1.2369403071801852,0.7394270839711269,0.252369299605287,0.6273680329322815,1.0
204,1,204,-1,1,-1.1893955767824418,-0.33639596562053553,1.2369403071801852,0.7394270839711269,0.252369299605287,1.1683610677719116,1.0
205,1,205,1,1,-1.2710525946996452,-1.0168644227691146,1.2369403071801852,0.7394270839711269,0.252369299605287,1.1133618354797363,0.0
206,1,206,-1,-1,-0.8883488089091335,-0.2126428454388264,1.2369403071801852,0.7394270839711269,0.252369299605287,0.6753674149513245,1.0
207,1,207,-1,1,2.0207836965038593,0.9832318922643806,1.2369403071801852,0.7394270839711269,0.252369299605287,0.5313692688941956,1.0
208,1,208,-1,-1,-0.09145469180996242,0.11494125101947844,1.2369403071801852,0.7394270839711269,0.252369299605287,0.3123692572116852,1.0
209,1,209,1,-1,0.9508393420922812,-0.10349783249800515,1.2369403071801852,0.7394270839711269,0.252369299605287,1.2343602180480957,0.0
210,1,210,-1,1,-0.12250627348454794,0.10217668906801347,1.2369403071801852,0.7394270839711269,0.252369299605287,3.003352403640747,1.0
211,1,211,1,1,0.1863310400151178,-0.4177688956129732,1.2369403071801852,0.7394270839711269,0.252369299605287,1.5903757810592651,0.0
212,1,212,1,1,-0.8766717487989605,-0.8547438972278776,1.2369403071801852,0.7394270839711269,0.252369299605287,1.1903607845306396,0.0
213,1,213,1,1,-0.3183673802969829,-0.6252383353469577,1.2369403071801852,0.7394270839711269,0.252369299605287,0.3313692808151245,1.0
214,1,214,-1,1,0.45420063196322824,0.3392470933898266,1.2369403071801852,0.7394270839711269,0.252369299605287,1.3423641920089722,1.0
215,1,215,-1,1,1.0864822890812096,0.5991629478425173,1.2369403071801852,0.7394270839711269,0.252369299605287,2.454392194747925,1.0
216,1,216,1,-1,-1.8428685113589514,-1.2519242586745227,1.2369403071801852,0.7394270839711269,0.252369299605287,0.7993658781051636,0.0
217,1,217,1,1,0.30224066326766064,-0.3701212239972954,1.2369403071801852,0.7394270839711269,0.252369299605287,0.8403652906417847,1.0
218,1,218,1,1,-1.0298231482757205,-0.9177007716010332,1.2369403071801852,0.7394270839711269,0.252369299605287,1.955392837524414,0.0
219,1,219,-1,-1,0.39070629011007074,0.31314608930424515,1.2369403071801852,0.7394270839711269,0.252369299605287,0.9873634576797485,1.0
220,1,220,-1,-1,0.09239365645304344,0.19051690625247297,1.2369403071801852,0.7394270839711269,0.252369299605287,3.1463420391082764,1.0
221,1,221,1,-1,0.44466281923450635,-0.3115748848074972,1.2369403071801852,0.7394270839711269,0.252369299605287,1.798385500907898,0.0
222,1,222,-1,1,-0.6192652904785602,-0.10202905200567536,1.2369403071801852,0.7394270839711269,0.252369299605287,2.195404052734375,1.0
223,1,223,-1,1,-0.25418334345499355,0.048047397528548696,1.2369403071801852,0.7394270839711269,0.252369299605287,0.36136937141418457,1.0
224,1,224,1,1,1.284127145921487,0.03350880581850785,1.2369403071801852,0.7394270839711269,0.252369299605287,0.5283693075180054,1.0
225,1,225,-1,1,-0.411326261972641,-0.016550294778192642,1.2369403071801852,0.7394270839711269,0.252369299605287,0.366369366645813,1.0
226,1,226,-1,-1,0.863606922886076,0.5075442197188653,1.2369403071801852,0.7394270839711269,0.252369299605287,0.48136961460113525,1.0
227,1,227,-1,1,0.8247209144746293,0.4915591124668456,1.2369403071801852,0.7394270839711269,0.252369299605287,0.6583676338195801,1.0
228,1,228,-1,1,-0.536632306002491,-0.06806061005534086,1.2369403071801852,0.7394270839711269,0.252369299605287,2.85636305809021,1.0
229,1,229,1,-1,1.2691917820567682,0.027369235238278555,1.2369403071801852,0.7394270839711269,0.252369299605287,3.2483346462249756,1.0
230,1,230,1,1,0.2575541840698933,-0.3884907659449639,1.2369403071801852,0.7394270839711269,0.252369299605287,1.4523693323135376,1.0
231,1,231,-1,1,-0.8811796778633406,-0.20969578727183158,1.2369403071801852,0.7394270839711269,0.252369299605287,3.541313409805298,0.0
232,1,232,1,1,-1.188045148621822,-0.982742048617705,1.2369403071801852,0.7394270839711269,0.252369299605287,1.798385500907898,0.0
233,1,233,-1,1,-0.2685860990429174,0.04212676946198125,1.2369403071801852,0.7394270839711269,0.252369299605287,0.4693695902824402,1.0
234,1,234,1,-1,-0.02841585101670456,-0.5060462021665301,1.2369403071801852,0.7394270839711269,0.252369299605287,4.5962371826171875,0.0
235,1,235,-1,-1,-1.4893497536577136,-0.459699947796065,1.2369403071801852,0.7394270839711269,0.252369299605287,2.136401414871216,1.0
236,1,236,-1,-1,-0.18024251991790952,0.07844270017923234,1.2369403071801852,0.7394270839711269,0.252369299605287,0.3883694112300873,1.0
237,1,237,1,1,2.281312512348317,0.44342784054733947,1.2369403071801852,0.7394270839711269,0.252369299605287,5.57016658782959,0.0
238,1,238,-1,-1,1.4105284986648314,0.7323705879787024,1.2369403071801852,0.7394270839711269,0.252369299605287,1.3373639583587646,1.0
239,1,239,-1,-1,0.5335502339503455,0.3718658153925655,1.2369403071801852,0.7394270839711269,0.252369299605287,0.3533693552017212,1.0
240,1,240,1,-1,-0.3300165274200255,-0.6300270208861394,1.2369403071801852,0.7394270839711269,0.252369299605287,0.805365800857544,1.0
241,1,241,-1,1,1.0304068347042366,0.5761116708140992,1.2369403071801852,0.7394270839711269,0.252369299605287,0.9123643636703491,1.0
242,1,242,-1,1,2.1529421307411525,1.0375590611316345,1.2369403071801852,0.7394270839711269,0.252369299605287,0.544369101524353,1.0
243,1,243,-1,-1,-0.3715421639818764,-0.00019600439749026255,1.2369403071801852,0.7394270839711269,0.252369299605287,0.3763693869113922,1.0
244,1,244,1,-1,1.2493682091346032,0.019220238922530164,1.2369403071801852,0.7394270839711269,0.252369299605287,0.5283693075180054,1.0
245,1,245,-1,1,1.804690226549716,0.8944010393486244,1.2369403071801852,0.7394270839711269,0.252369299605287,0.8783648014068604,1.0
246,1,246,1,1,2.066039053848992,0.3549340747122232,1.2369403071801852,0.7394270839711269,0.252369299605287,0.36436936259269714,1.0
247,1,247,-1,-1,-1.0979841375856334,-0.2988189110624666,1.2369403071801852,0.7394270839711269,0.252369299605287,1.217360496520996,1.0
248,1,248,-1,-1,-0.3114637465835748,0.024500794910940732,1.2369403071801852,0.7394270839711269,0.252369299605287,0.4603695571422577,1.0
249,1,249,-1,1,-0.14944635564626468,0.09110226615021921,1.2369403071801852,0.7394270839711269,0.252369299605287,0.522369384765625,1.0
250,1,250,-1,-1,0.4468783317969549,0.3362370710637782,1.2369403071801852,0.7394270839711269,0.252369299605287,1.6823800802230835,1.0
251,1,251,1,1,0.24768844898323839,-0.3925463334851327,1.2369403071801852,0.7394270839711269,0.252369299605287,1.9833941459655762,0.0
252,1,252,-1,1,0.2118560420795998,0.23962503343840746,1.2369403071801852,0.7394270839711269,0.252369299605287,0.5933684706687927,1.0
253,1,253,1,1,-1.1797699216110582,-0.9793403008758892,1.2369403071801852,0.7394270839711269,0.252369299605287,2.149401903152466,0.0
254,1,254,-1,1,-0.7189354096710073,-0.14300105222372456,1.2369403071801852,0.7394270839711269,0.252369299605287,0.6003683805465698,1.0
255,1,255,-1,-1,-1.359022302188926,-0.4061254521171073,1.2369403071801852,0.7394270839711269,0.252369299605287,2.7583701610565186,0.0
256,1,256,1,1,-0.529914716484769,-0.7122003814911797,1.2369403071801852,0.7394270839711269,0.252369299605287,1.2333602905273438,0.0
257,1,257,1,1,-0.1677589030128377,-0.5633267954178105,1.2369403071801852,0.7394270839711269,0.252369299605287,0.3903694152832031,1.0
258,1,258,1,1,-0.05080586873464675,-0.5152502025053916,1.2369403071801852,0.7394270839711269,0.252369299605287,1.8153862953186035,0.0
259,1,259,1,1,0.322461934349701,-0.3618087434876366,1.2369403071801852,0.7394270839711269,0.252369299605287,0.9313641786575317,1.0
260,1,260,-1,-1,0.502677004815907,0.359174569901169,1.2369403071801852,0.7394270839711269,0.252369299605287,1.3573648929595947,1.0
261,1,261,-1,1,1.0581212809913412,0.5875044162880548,1.2369403071801852,0.7394270839711269,0.252369299605287,2.581382989883423,1.0
262,1,262,1,1,-1.5179069390325948,-1.1183403348256382,1.2369403071801852,0.7394270839711269,0.252369299605287,2.2404062747955322,0.0
263,1,263,-1,-1,-0.027726376983671044,0.14113843579375512,1.2369403071801852,0.7394270839711269,0.252369299605287,0.6193681359291077,1.0
264,1,264,1,-1,-1.9117373145326926,-1.2802345751616844,1.2369403071801852,0.7394270839711269,0.252369299605287,1.0533626079559326,0.0
265,1,265,1,-1,1.06862520342353,-0.05507888431927421,1.2369403071801852,0.7394270839711269,0.252369299605287,0.662367582321167,1.0
266,1,266,-1,-1,-2.2930807919077307,-0.790094538885588,1.2369403071801852,0.7394270839711269,0.252369299605287,1.6103767156600952,0.0
267,1,267,1,-1,-0.640826658962986,-0.7577936261689299,1.2369403071801852,0.7394270839711269,0.252369299605287,2.340400457382202,0.0
268,1,268,1,1,-0.005129940227486668,-0.49647392163086473,1.2369403071801852,0.7394270839711269,0.252369299605287,1.133361577987671,1.0
269,1,269,1,1,2.2670464536492676,0.43756340529970467,1.2369403071801852,0.7394270839711269,0.252369299605287,0.8003658056259155,1.0
270,1,270,1,1,-0.5836313008452292,-0.7342819835195679,1.2369403071801852,0.7394270839711269,0.252369299605287,1.8213865756988525,0.0
271,1,271,1,1,0.4699335399081948,-0.30118669643828844,1.2369403071801852,0.7394270839711269,0.252369299605287,0.87236487865448,1.0
272,1,272,1,1,-0.24764808697048418,-0.5961673266527777,1.2369403071801852,0.7394270839711269,0.252369299605287,0.805365800857544,0.0
273,1,273,1,1,0.8083751338862185,-0.16206145835675023,1.2369403071801852,0.7394270839711269,0.252369299605287,0.8413653373718262,0.0
274,1,274,-1,1,-1.6539275733152707,-0.5273539499938116,1.2369403071801852,0.7394270839711269,0.252369299605287,0.9553638696670532,0.0
275,1,275,1,1,-0.37102753802925204,-0.646885665675951,1.2369403071801852,0.7394270839711269,0.252369299605287,2.7623698711395264,1.0
276,1,276,-1,1,-0.30849042678312916,0.025723055509194515,1.2369403071801852,0.7394270839711269,0.252369299605287,0.6063683032989502,1.0
277,1,277,-1,1,-1.083803583269897,-0.29298962462011185,1.2369403071801852,0.7394270839711269,0.252369299605287,2.747370958328247,0.0
278,1,278,1,-1,-0.7538056413962475,-0.804236581493913,1.2369403071801852,0.7394270839711269,0.252369299605287,0.7813661098480225,0.0
279,1,279,1,1,0.5272748056154025,-0.2776150746714614,1.2369403071801852,0.7394270839711269,0.252369299605287,0.40936946868896484,1.0
280,1,280,-1,1,-0.288462872016743,0.03395590387843324,1.2369403071801852,0.7394270839711269,0.252369299605287,0.43536949157714844,1.0
281,1,281,1,1,-0.08341338338805011,-0.5286543712604193,1.2369403071801852,0.7394270839711269,0.252369299605287,3.689302682876587,0.0
282,1,282,-1,-1,-0.6123557801922821,-0.09918871771843141,1.2369403071801852,0.7394270839711269,0.252369299605287,1.5573742389678955,0.0
283,1,283,1,-1,-0.3612863292344661,-0.6428812879136108,1.2369403071801852,0.7394270839711269,0.252369299605287,1.203360676765442,0.0
284,1,284,1,1,-2.2532128695786864,-1.4206070020149988,1.2369403071801852,0.7394270839711269,0.252369299605287,1.107361912727356,0.0
285,1,285,-1,-1,-1.671691113733815,-0.5346561162578716,1.2369403071801852,0.7394270839711269,0.252369299605287,0.9063644409179688,0.0
286,1,286,-1,-1,-0.20375378282649043,0.0687777827815015,1.2369403071801852,0.7394270839711269,0.252369299605287,0.9583637714385986,1.0
287,1,287,1,-1,-0.2836977645133447,-0.6109864861773567,1.2369403071801852,0.7394270839711269,0.252369299605287,0.9473639726638794,0.0
288,1,288,-1,-1,0.7602829753998606,0.4650702181501412,1.2369403071801852,0.7394270839711269,0.252369299605287,0.5403691530227661,1.0
289,1,289,1,1,-1.6262625466824239,-1.162882731445869,1.2369403071801852,0.7394270839711269,0.252369299605287,0.43036949634552,1.0
290,1,290,-1,-1,1.4895486486890157,0.7648538801654994,1.2369403071801852,0.7394270839711269,0.252369299605287,2.153402090072632,1.0
291,1,291,1,-1,-1.4044742760099809,-1.071710882270026,1.2369403071801852,0.7394270839711269,0.252369299605287,1.3593649864196777,1.0
292,1,292,-1,-1,-1.285995458579378,-0.37610586473689495,1.2369403071801852,0.7394270839711269,0.252369299605287,3.027350664138794,1.0
293,1,293,1,1,1.109510197732109,-0.0382720418142341,1.2369403071801852,0.7394270839711269,0.252369299605287,1.536373257637024,0.0
294,1,294,-1,1,1.2706510218482971,0.6748703054761656,1.2369403071801852,0.7394270839711269,0.252369299605287,0.3523693382740021,1.0
295,1,295,-1,-1,1.2193652742749108,0.653787962264532,1.2369403071801852,0.7394270839711269,0.252369299605287,0.3533693552017212,1.0
296,1,296,-1,-1,0.09559004903694536,0.19183086673236097,1.2369403071801852,0.7394270839711269,0.252369299605287,0.37836939096450806,1.0
297,1,297,1,-1,1.0162262971236364,-0.07661882043793655,1.2369403071801852,0.7394270839711269,0.252369299605287,0.4703695774078369,1.0
298,1,298,1,-1,1.9073873770168877,0.2897161679772284,1.2369403071801852,0.7394270839711269,0.252369299605287,0.4513695240020752,1.0
299,1,299,-1,1,-0.16167543976336846,0.08607518239460467,1.2369403071801852,0.7394270839711269,0.252369299605287,1.2373602390289307,1.0
300,1,300,-1,-1,-0.33964281442002553,0.012917054639593945,1.2369403071801852,0.7394270839711269,0.252369299605287,4.302258491516113,0.0
301,1,301,1,-1,1.113135454986801,-0.03678178533382459,1.2369403071801852,0.7394270839711269,0.252369299605287,0.34636932611465454,1.0
302,1,302,1,-1,1.1871951211227634,-0.006337629335451511,1.2369403071801852,0.7394270839711269,0.252369299605287,0.4423695206642151,1.0
303,1,303,-1,-1,0.6479743309056808,0.4189028227061811,1.2369403071801852,0.7394270839711269,0.252369299605287,0.4023694396018982,1.0
304,1,304,1,1,-0.5075012207094088,-0.7029867298849029,1.2369403071801852,0.7394270839711269,0.252369299605287,1.671379566192627,0.0
305,1,305,1,1,0.3416716045477588,-0.3539121078869127,1.2369403071801852,0.7394270839711269,0.252369299605287,1.8173863887786865,0.0
306,1,306,1,-1,-0.6847959994714549,-0.7758683695674206,1.2369403071801852,0.7394270839711269,0.252369299605287,1.7513833045959473,0.0
307,1,307,1,1,0.12438570740225624,-0.44323313907816636,1.2369403071801852,0.7394270839711269,0.252369299605287,4.952211380004883,0.0
308,1,308,1,1,-0.8484364552029324,-0.8431370438926323,1.2369403071801852,0.7394270839711269,0.252369299605287,1.19636070728302,0.0
309,1,309,-1,1,0.3597158739981409,0.3004066710514811,1.2369403071801852,0.7394270839711269,0.252369299605287,4.041276931762695,0.0
310,1,310,-1,-1,-0.25635946856886604,0.04715284458366928,1.2369403071801852,0.7394270839711269,0.252369299605287,0.40936946868896484,1.0
311,1,311,-1,-1,-0.4088592443835923,-0.0155361628997982,1.2369403071801852,0.7394270839711269,0.252369299605287,2.0553975105285645,1.0
312,1,312,-1,1,0.7640381722955558,0.46661388970663015,1.2369403071801852,0.7394270839711269,0.252369299605287,0.9583637714385986,1.0
313,1,313,-1,1,1.838822049441767,0.9084318147335253,1.2369403071801852,0.7394270839711269,0.252369299605287,0.6893672347068787,1.0
314,1,314,1,1,-1.4995242816164924,-1.1107836643835511,1.2369403071801852,0.7394270839711269,0.252369299605287,0.7353666424751282,0.0
315,1,315,-1,-1,0.35738079332439954,0.2994467752808243,1.2369403071801852,0.7394270839711269,0.252369299605287,1.4303683042526245,1.0
316,1,316,1,-1,-0.09335898761756922,-0.5327427710934092,1.2369403071801852,0.7394270839711269,0.252369299605287,0.32336926460266113,1.0
317,1,317,1,1,-0.052243032321960384,-0.515840986055064,1.2369403071801852,0.7394270839711269,0.252369299605287,0.6913672089576721,1.0
318,1,318,-1,1,0.07770618045046557,0.1844792364387319,1.2369403071801852,0.7394270839711269,0.252369299605287,0.776366114616394,1.0
319,1,319,-1,-1,1.1843959832101574,0.6394129237601267,1.2369403071801852,0.7394270839711269,0.252369299605287,0.4283694922924042,1.0
320,1,320,1,1,-0.027573960692266017,-0.505700121206299,1.2369403071801852,0.7394270839711269,0.252369299605287,3.1693403720855713,1.0
321,1,321,-1,1,-2.4584453271826723,-0.8580719410422009,1.2369403071801852,0.7394270839711269,0.252369299605287,2.275405168533325,0.0
322,1,322,-1,1,-0.6317514540565459,-0.10716181497400334,1.2369403071801852,0.7394270839711269,0.252369299605287,0.4123694598674774,1.0
323,1,323,-1,-1,-0.8969008118134598,-0.2161583691253614,1.2369403071801852,0.7394270839711269,0.252369299605287,5.5991644859313965,0.0
324,1,324,1,1,-1.870714485829084,-1.2633710722361595,1.2369403071801852,0.7394270839711269,0.252369299605287,0.6773673892021179,1.0
325,1,325,-1,1,-1.4376225529509892,-0.4384361337682838,1.2369403071801852,0.7394270839711269,0.252369299605287,0.41336947679519653,1.0
326,1,326,-1,-1,-1.3444157769391487,-0.400121059220142,1.2369403071801852,0.7394270839711269,0.252369299605287,0.919364333152771,1.0
327,1,327,-1,1,1.4668602698517506,0.7555272307122896,1.2369403071801852,0.7394270839711269,0.252369299605287,2.4143950939178467,0.0
328,1,328,1,-1,-0.44570788039084136,-0.6775849668136875,1.2369403071801852,0.7394270839711269,0.252369299605287,1.0753623247146606,1.0
329,1,329,1,-1,0.872680027548965,-0.13562725582424912,1.2369403071801852,0.7394270839711269,0.252369299605287,1.80638587474823,0.0
330,1,330,1,1,0.38016571776423963,-0.3380880993688334,1.2369403071801852,0.7394270839711269,0.252369299605287,1.409367322921753,1.0
331,1,331,-1,1,-1.3151222527069895,-0.3880791926010198,1.2369403071801852,0.7394270839711269,0.252369299605287,0.9223642349243164,0.0
332,1,332,-1,1,0.353397798723908,0.2978094615406377,1.2369403071801852,0.7394270839711269,0.252369299605287,0.4083694517612457,1.0
333,1,333,-1,1,-1.3396238197484218,-0.3981512003230712,1.2369403071801852,0.7394270839711269,0.252369299605287,1.6173770427703857,0.0
334,1,334,-1,1,-0.0893557200315999,0.11580408807493232,1.2369403071801852,0.7394270839711269,0.252369299605287,3.157341241836548,1.0
335,1,335,-1,1,0.6538602101609805,0.42132236677902324,1.2369403071801852,0.7394270839711269,0.252369299605287,2.602381467819214,1.0
336,1,336,-1,-1,-0.2559105515759039,0.04733738361384758,1.2369403071801852,0.7394270839711269,0.252369299605287,0.40136945247650146,1.0
337,1,337,1,1,0.04559315504271422,-0.47562287131298486,1.2369403071801852,0.7394270839711269,0.252369299605287,2.792367696762085,0.0
338,1,338,1,1,-0.48151711000992625,-0.692305283952352,1.2369403071801852,0.7394270839711269,0.252369299605287,1.5073719024658203,0.0
339,1,339,-1,-1,-0.13488579798033595,0.09708776287378046,1.2369403071801852,0.7394270839711269,0.252369299605287,0.7983658313751221,1.0
340,1,340,-1,1,-0.4250304845053956,-0.022183772626413828,1.2369403071801852,0.7394270839711269,0.252369299605287,1.3823660612106323,1.0
341,1,341,-1,1,-0.72292829198723,-0.14464243056716808,1.2369403071801852,0.7394270839711269,0.252369299605287,0.9783635139465332,0.0
342,1,342,-1,-1,0.7121217870883689,0.44527230645917704,1.2369403071801852,0.7394270839711269,0.252369299605287,0.6463677883148193,1.0
343,1,343,1,1,1.0273682516556044,-0.07203862963238689,1.2369403071801852,0.7394270839711269,0.252369299605287,2.5893824100494385,0.0
344,1,344,1,1,-0.5402519049906074,-0.7164497522468969,1.2369403071801852,0.7394270839711269,0.252369299605287,0.636367917060852,1.0
345,1,345,-1,1,1.5638807195162168,0.795410015211949,1.2369403071801852,0.7394270839711269,0.252369299605287,2.2944037914276123,0.0
346,1,346,1,1,0.5952533001191735,-0.24967074276739945,1.2369403071801852,0.7394270839711269,0.252369299605287,2.752370595932007,1.0
347,1,347,1,1,1.7362555348577597,0.21936796401129716,1.2369403071801852,0.7394270839711269,0.252369299605287,0.44536954164505005,1.0
348,1,348,1,1,1.68214816389748,0.19712571896589698,1.2369403071801852,0.7394270839711269,0.252369299605287,2.213404893875122,1.0
349,1,349,-1,1,0.1368966552323757,0.20881102379205366,1.2369403071801852,0.7394270839711269,0.252369299605287,0.9433640241622925,1.0
350,1,350,-1,1,1.3302932069844904,0.6993877801436408,1.2369403071801852,0.7394270839711269,0.252369299605287,0.7983658313751221,1.0
351,1,351,-1,1,0.5814875643824974,0.39157170446777045,1.2369403071801852,0.7394270839711269,0.252369299605287,0.5413691401481628,1.0
352,1,352,-1,1,-1.2833885640580132,-0.3750342327998291,1.2369403071801852,0.7394270839711269,0.252369299605287,0.4033694267272949,1.0
353,1,353,1,-1,-0.13527445133727425,-0.549973214907241,1.2369403071801852,0.7394270839711269,0.252369299605287,2.7963674068450928,0.0
354,1,354,-1,1,0.17390912932062444,0.2240259659301903,1.2369403071801852,0.7394270839711269,0.252369299605287,1.5183724164962769,1.0
355,1,355,-1,1,0.67885983735147,0.4315991151063946,1.2369403071801852,0.7394270839711269,0.252369299605287,0.7743661403656006,1.0
356,1,356,1,1,-1.3825287428981279,-1.0626895989131964,1.2369403071801852,0.7394270839711269,0.252369299605287,1.3273634910583496,0.0
357,1,357,1,1,0.38450679346722466,-0.3363035870587212,1.2369403071801852,0.7394270839711269,0.252369299605287,1.5883756875991821,0.0
358,1,358,-1,-1,-1.6226172714607539,-0.5144830343693056,1.2369403071801852,0.7394270839711269,0.252369299605287,0.5643688440322876,1.0
359,1,359,-1,-1,-0.19495348511483412,0.07239537451995107,1.2369403071801852,0.7394270839711269,0.252369299605287,2.9933531284332275,0.0
360,1,360,-1,-1,1.2576738887595182,0.6695357166941811,1.2369403071801852,0.7394270839711269,0.252369299605287,0.44436952471733093,1.0
361,1,361,-1,1,1.3821842641486781,0.7207189516388888,1.2369403071801852,0.7394270839711269,0.252369299605287,0.8523651361465454,1.0
362,1,362,-1,-1,0.6820583884210766,0.43291396288808853,1.2369403071801852,0.7394270839711269,0.252369299605287,2.752370595932007,1.0
363,1,363,1,-1,1.0519479229930069,-0.06193451510382775,1.2369403071801852,0.7394270839711269,0.252369299605287,1.4613697528839111,1.0
364,1,364,1,-1,1.8975686383431987,0.2856799195374869,1.2369403071801852,0.7394270839711269,0.252369299605287,0.9113644361495972,1.0
365,1,365,1,-1,0.05594549486783608,-0.4713672722125841,1.2369403071801852,0.7394270839711269,0.252369299605287,0.3713693618774414,1.0
366,1,366,-1,1,-1.0531667869595511,-0.28039557100325874,1.2369403071801852,0.7394270839711269,0.252369299605287,0.6793673634529114,1.0
367,1,367,-1,1,-0.7301527123313577,-0.14761221684126047,1.2369403071801852,0.7394270839711269,0.252369299605287,3.258333921432495,0.0
368,1,368,-1,1,1.4505136974320703,0.7488075460749077,1.2369403071801852,0.7394270839711269,0.252369299605287,0.9183642864227295,1.0
369,1,369,-1,-1,0.5061791130696028,0.36061420277505973,1.2369403071801852,0.7394270839711269,0.252369299605287,3.305330514907837,1.0
370,1,370,-1,-1,0.8294993646217969,0.49352341894162427,1.2369403071801852,0.7394270839711269,0.252369299605287,0.3623693585395813,1.0
371,1,371,-1,-1,-1.0046262484444546,-0.2604417175240159,1.2369403071801852,0.7394270839711269,0.252369299605287,1.1913608312606812,0.0
372,1,372,1,-1,0.8967542792371883,-0.12573090721534724,1.2369403071801852,0.7394270839711269,0.252369299605287,1.3583649396896362,0.0
373,1,373,1,1,0.5717160928643337,-0.2593463252648532,1.2369403071801852,0.7394270839711269,0.252369299605287,2.3903968334198,0.0
374,1,374,1,-1,-0.5434494567668572,-0.7177641892430118,1.2369403071801852,0.7394270839711269,0.252369299605287,1.247360110282898,0.0
375,1,375,-1,-1,0.4221558772413485,0.32607426177198623,1.2369403071801852,0.7394270839711269,0.252369299605287,0.31636926531791687,1.0
376,1,376,-1,-1,0.006036487960160472,0.15501754139780918,1.2369403071801852,0.7394270839711269,0.252369299605287,0.5713687539100647,1.0
377,1,377,-1,1,-1.9181027631705143,-0.6359500470392383,1.2369403071801852,0.7394270839711269,0.252369299605287,1.0493626594543457,1.0
378,1,378,-1,-1,-0.8103629146502594,-0.18058471104039298,1.2369403071801852,0.7394270839711269,0.252369299605287,1.3473644256591797,0.0
379,1,379,1,-1,-0.3010768127709283,-0.618130596917551,1.2369403071801852,0.7394270839711269,0.252369299605287,1.5883756875991821,0.0
380,1,380,1,1,0.340756778204357,-0.35428817109868593,1.2369403071801852,0.7394270839711269,0.252369299605287,1.3723655939102173,0.0
381,1,381,-1,-1,-1.2866245229933473,-0.3763644580596997,1.2369403071801852,0.7394270839711269,0.252369299605287,1.4573695659637451,0.0
382,1,382,-1,-1,-0.5467009927505038,-0.07219960616548407,1.2369403071801852,0.7394270839711269,0.252369299605287,1.0063631534576416,1.0
383,1,383,1,-1,1.3353838134930975,0.054579194937493136,1.2369403071801852,0.7394270839711269,0.252369299605287,0.5293692946434021,1.0
384,1,384,-1,-1,-0.639579514068536,-0.1103797430663625,1.2369403071801852,0.7394270839711269,0.252369299605287,1.2793612480163574,0.0
385,1,385,1,1,-1.3209405758139956,-1.0373721776474703,1.2369403071801852,0.7394270839711269,0.252369299605287,1.108361840248108,0.0
386,1,386,-1,1,1.598560101562389,0.8096658790583047,1.2369403071801852,0.7394270839711269,0.252369299605287,0.4693695902824402,1.0
387,1,387,-1,-1,-0.39393000587336746,-0.009399110306180014,1.2369403071801852,0.7394270839711269,0.252369299605287,1.3173630237579346,1.0
388,1,388,1,1,-1.2387577487679473,-1.003588784641297,1.2369403071801852,0.7394270839711269,0.252369299605287,4.292259216308594,1.0
389,1,389,-1,-1,0.214263941717035,0.24061486334198712,1.2369403071801852,0.7394270839711269,0.252369299605287,0.40036943554878235,1.0
390,1,390,-1,1,-0.7816824988583745,-0.1687948786252242,1.2369403071801852,0.7394270839711269,0.252369299605287,0.4483695328235626,1.0
391,1,391,-1,1,-1.5063013124590816,-0.46666832785353113,1.2369403071801852,0.7394270839711269,0.252369299605287,1.221360445022583,0.0
392,1,392,1,-1,-0.7980285570574474,-0.8224155635679181,1.2369403071801852,0.7394270839711269,0.252369299605287,4.530241966247559,0.0
393,1,393,-1,1,1.194665500554968,0.6436344765213752,1.2369403071801852,0.7394270839711269,0.252369299605287,0.4343695044517517,1.0
394,1,394,1,-1,1.9637120173249174,0.3128698793771944,1.2369403071801852,0.7394270839711269,0.252369299605287,1.2613604068756104,0.0
395,1,395,-1,1,-0.3664230373405993,0.0019083460293176924,1.2369403071801852,0.7394270839711269,0.252369299605287,0.3483693301677704,1.0
396,1,396,1,1,-2.3207056543827362,-1.448351670287833,1.2369403071801852,0.7394270839711269,0.252369299605287,0.522369384765625,1.0
397,1,397,-1,-1,-0.21324074410281202,0.06487792008813445,1.2369403071801852,0.7394270839711269,0.252369299605287,1.439368724822998,0.0
398,1,398,1,1,0.6177434999268868,-0.2404255599694699,1.2369403071801852,0.7394270839711269,0.252369299605287,7.9229960441589355,0.0
399,1,399,-1,1,0.32238768016064023,0.28506194408174196,1.2369403071801852,0.7394270839711269,0.252369299605287,1.6343778371810913,1.0
400,1,400,-1,-1,0.44891636431862847,0.33707485744949695,1.2369403071801852,0.7394270839711269,0.252369299605287,1.8793892860412598,0.0
401,1,401,-1,-1,0.10774037255364348,0.19682557389042413,1.2369403071801852,0.7394270839711269,0.252369299605287,0.7553664445877075,1.0
402,1,402,-1,-1,-1.1663470229616892,-0.32692125685304413,1.2369403071801852,0.7394270839711269,0.252369299605287,0.6203681230545044,1.0
403,1,403,-1,-1,-0.8505159393652962,-0.1970906583665249,1.2369403071801852,0.7394270839711269,0.252369299605287,1.425368070602417,1.0
404,1,404,-1,1,1.4681703828785766,0.7560657868177272,1.2369403071801852,0.7394270839711269,0.252369299605287,0.6773673892021179,1.0
405,1,405,-1,-1,-0.6634212486293849,-0.12018050944991265,1.2369403071801852,0.7394270839711269,0.252369299605287,2.366398572921753,1.0
406,1,406,1,-1,-0.9189476058939334,-0.8721224901316242,1.2369403071801852,0.7394270839711269,0.252369299605287,2.2654058933258057,1.0
407,1,407,1,1,1.2194873916752311,0.0069369501156109625,1.2369403071801852,0.7394270839711269,0.252369299605287,1.6413781642913818,0.0
408,1,408,1,-1,0.7537727043235254,-0.18450721014349242,1.2369403071801852,0.7394270839711269,0.252369299605287,1.7563835382461548,1.0
409,1,409,-1,1,0.23268578032232318,0.248187640233077,1.2369403071801852,0.7394270839711269,0.252369299605287,0.3703693747520447,1.0
410,1,410,-1,1,2.7827981666407178,1.296477800763002,1.2369403071801852,0.7394270839711269,0.252369299605287,0.31936925649642944,1.0
411,1,411,-1,1,-0.5281837687662523,-0.06458761862832146,1.2369403071801852,0.7394270839711269,0.252369299605287,1.1243616342544556,1.0
412,1,412,-1,1,1.7329502444554228,0.864910449934009,1.2369403071801852,0.7394270839711269,0.252369299605287,0.4913696050643921,1.0
413,1,413,1,-1,0.355653811059887,-0.348164357478813,1.2369403071801852,0.7394270839711269,0.252369299605287,1.6233773231506348,0.0
414,1,414,-1,1,0.7110750746748954,0.44484202804092543,1.2369403071801852,0.7394270839711269,0.252369299605287,2.345400094985962,1.0
415,1,415,1,-1,-1.926265567582645,-1.2862067922308864,1.2369403071801852,0.7394270839711269,0.252369299605287,0.7833660840988159,0.0
416,1,416,1,-1,-0.6710988776911034,-0.7702378106685432,1.2369403071801852,0.7394270839711269,0.252369299605287,1.8413875102996826,0.0
417,1,417,-1,-1,-0.29104043464658347,0.03289632957986188,1.2369403071801852,0.7394270839711269,0.252369299605287,0.39136940240859985,1.0
418,1,418,1,-1,-0.41570326491803006,-0.6652507876067696,1.2369403071801852,0.7394270839711269,0.252369299605287,1.3093626499176025,0.0
419,1,419,-1,1,-1.0959807115279638,-0.29799535056573245,1.2369403071801852,0.7394270839711269,0.252369299605287,1.2533600330352783,0.0
420,1,420,1,-1,-1.3858627657923335,-1.0640601359192234,1.2369403071801852,0.7394270839711269,0.252369299605287,1.4753704071044922,0.0
421,1,421,-1,-1,-1.988304911837892,-0.6648084699428327,1.2369403071801852,0.7394270839711269,0.252369299605287,1.5063718557357788,0.0
422,1,422,-1,-1,-0.3049242303869918,0.027189033484379066,1.2369403071801852,0.7394270839711269,0.252369299605287,2.360399007797241,1.0
423,1,423,1,-1,0.23353985617703854,-0.3983624813159726,1.2369403071801852,0.7394270839711269,0.252369299605287,4.385252475738525,0.0
424,1,424,1,-1,1.458393586572964,0.10514556819244142,1.2369403071801852,0.7394270839711269,0.252369299605287,2.260406255722046,0.0
425,1,425,1,-1,1.3407101882570858,0.05676874010669447,1.2369403071801852,0.7394270839711269,0.252369299605287,0.4593695402145386,1.0
426,1,426,-1,-1,-0.3610385484617043,0.004121780520092211,1.2369403071801852,0.7394270839711269,0.252369299605287,0.36136937141418457,1.0
427,1,427,-1,-1,0.3618330215181633,0.3012769797192626,1.2369403071801852,0.7394270839711269,0.252369299605287,0.5373691916465759,1.0
428,1,428,-1,-1,0.27716843747080316,0.26647339581512747,1.2369403071801852,0.7394270839711269,0.252369299605287,0.9343640804290771,1.0
429,1,429,-1,1,1.4271049564234437,0.7391847729762038,1.2369403071801852,0.7394270839711269,0.252369299605287,0.49936962127685547,1.0
430,1,430,1,1,-0.46544171482113816,-0.6856970737834797,1.2369403071801852,0.7394270839711269,0.252369299605287,0.41836947202682495,1.0
431,1,431,-1,1,-1.7794349461503194,-0.5789470267236132,1.2369403071801852,0.7394270839711269,0.252369299605287,1.9933946132659912,1.0
432,1,432,-1,-1,0.1695586387638564,0.22223758339904925,1.2369403071801852,0.7394270839711269,0.252369299605287,1.4323683977127075,1.0
433,1,433,-1,1,1.1848581570176946,0.6396029123494513,1.2369403071801852,0.7394270839711269,0.252369299605287,0.433369517326355,1.0
434,1,434,1,1,-1.167958006526901,-0.9744847053240346,1.2369403071801852,0.7394270839711269,0.252369299605287,2.144401788711548,1.0
435,1,435,1,1,-0.685148475487269,-0.7760132640203801,1.2369403071801852,0.7394270839711269,0.252369299605287,2.3803975582122803,0.0
436,1,436,1,-1,-1.1868409870145544,-0.9822470466047117,1.2369403071801852,0.7394270839711269,0.252369299605287,1.6123768091201782,0.0
437,1,437,-1,1,-0.155451908513706,0.08863352712002694,1.2369403071801852,0.7394270839711269,0.252369299605287,0.47536957263946533,1.0
438,1,438,1,-1,0.16288190698945493,-0.42740827290302597,1.2369403071801852,0.7394270839711269,0.252369299605287,0.4913696050643921,1.0
439,1,439,1,-1,0.6146159831364131,-0.24171120725934447,1.2369403071801852,0.7394270839711269,0.252369299605287,2.5263869762420654,0.0
440,1,440,1,1,0.5055426918534944,-0.2865486264421012,1.2369403071801852,0.7394270839711269,0.252369299605287,1.296362042427063,0.0
441,1,441,1,1,1.485838101413516,0.11642735131000953,1.2369403071801852,0.7394270839711269,0.252369299605287,2.4193947315216064,1.0
442,1,442,1,1,1.5820915658100279,0.15599484652517254,1.2369403071801852,0.7394270839711269,0.252369299605287,1.556374192237854,0.0
443,1,443,-1,1,0.34473442437094726,0.2942481557174432,1.2369403071801852,0.7394270839711269,0.252369299605287,1.568374752998352,1.0
444,1,444,1,-1,0.3063464023331665,-0.368433452945649,1.2369403071801852,0.7394270839711269,0.252369299605287,3.009351968765259,0.0
445,1,445,-1,-1,-0.11680409722151516,0.1045207172379932,1.2369403071801852,0.7394270839711269,0.252369299605287,1.9923945665359497,0.0
446,1,446,1,1,0.5546331485050235,-0.2663687147802418,1.2369403071801852,0.7394270839711269,0.252369299605287,0.4843696057796478,1.0
447,1,447,1,-1,0.2969874940422503,-0.3722806761218924,1.2369403071801852,0.7394270839711269,0.252369299605287,0.5763686895370483,1.0
448,1,448,1,-1,-0.3358614515318047,-0.6324297292798146,1.2369403071801852,0.7394270839711269,0.252369299605287,0.5013696551322937,1.0
449,1,449,1,1,0.4748273633006975,-0.2991749627840168,1.2369403071801852,0.7394270839711269,0.252369299605287,0.44036951661109924,1.0
450,1,450,1,1,-0.09892680594476204,-0.5350315679320619,1.2369403071801852,0.7394270839711269,0.252369299605287,1.3743656873703003,0.0
451,1,451,-1,-1,0.05779592623126199,0.17629460751664228,1.2369403071801852,0.7394270839711269,0.252369299605287,1.2313603162765503,1.0
452,1,452,-1,1,2.5809577477492196,1.2135060359669156,1.2369403071801852,0.7394270839711269,0.252369299605287,0.9233642816543579,1.0
453,1,453,-1,1,-0.009385146181008247,0.1486780767466771,1.2369403071801852,0.7394270839711269,0.252369299605287,1.29436194896698,1.0
454,1,454,1,-1,-1.2581510670396945,-1.0115609135691706,1.2369403071801852,0.7394270839711269,0.252369299605287,2.4453928470611572,0.0
455,1,455,1,1,0.36047371376689047,-0.3461830108489268,1.2369403071801852,0.7394270839711269,0.252369299605287,0.5803686380386353,1.0
456,1,456,1,1,1.1108343868599704,-0.03772769936059739,1.2369403071801852,0.7394270839711269,0.252369299605287,0.317369282245636,1.0
457,1,457,-1,-1,-0.35496925579591604,0.006616721455659225,1.2369403071801852,0.7394270839711269,0.252369299605287,1.1613612174987793,1.0
458,1,458,-1,-1,-1.0307163105868085,-0.27116671755859445,1.2369403071801852,0.7394270839711269,0.252369299605287,1.7823847532272339,0.0
459,1,459,1,-1,-0.37963404781386084,-0.6504235958362508,1.2369403071801852,0.7394270839711269,0.252369299605287,1.4863709211349487,0.0
460,1,460,1,-1,0.8875280196915621,-0.12952360166758603,1.2369403071801852,0.7394270839711269,0.252369299605287,1.0723623037338257,1.0
461,1,461,1,-1,-0.981747616338364,-0.897938071195138,1.2369403071801852,0.7394270839711269,0.252369299605287,0.893364667892456,0.0
462,1,462,1,-1,-0.575228479005658,-0.730827784597839,1.2369403071801852,0.7394270839711269,0.252369299605287,0.30336928367614746,1.0
463,1,463,-1,-1,0.49462222386506716,0.3558634422578185,1.2369403071801852,0.7394270839711269,0.252369299605287,6.279115200042725,1.0
464,1,464,-1,1,1.0718732136967388,0.5931575066462216,1.2369403071801852,0.7394270839711269,0.252369299605287,4.918213844299316,0.0
465,1,465,1,1,0.35765027211515016,-0.34734366012784845,1.2369403071801852,0.7394270839711269,0.252369299605287,1.3543647527694702,0.0
466,1,466,1,-1,-1.1060406153869247,-0.9490319479295155,1.2369403071801852,0.7394270839711269,0.252369299605287,1.27436101436615,0.0
467,1,467,-1,1,-0.5431777824183628,-0.07075129873226035,1.2369403071801852,0.7394270839711269,0.252369299605287,10.394837379455566,1.0
468,1,468,1,1,0.4467334179133059,-0.3107237112541129,1.2369403071801852,0.7394270839711269,0.252369299605287,0.5863685607910156,1.0
469,1,469,-1,1,0.7941785440772072,0.47900387508254294,1.2369403071801852,0.7394270839711269,0.252369299605287,0.4533695578575134,1.0
470,1,470,-1,-1,-1.5976309457244133,-0.5042117539513409,1.2369403071801852,0.7394270839711269,0.252369299605287,0.9463639259338379,1.0
471,1,471,1,1,0.7228072062941318,-0.1972363851689845,1.2369403071801852,0.7394270839711269,0.252369299605287,0.5713687539100647,1.0
472,1,472,-1,-1,2.3228194749718654,1.1073915710278384,1.2369403071801852,0.7394270839711269,0.252369299605287,0.8853647708892822,0.0
473,1,473,-1,-1,-0.008679481908941855,0.1489681584375914,1.2369403071801852,0.7394270839711269,0.252369299605287,0.29536929726600647,1.0
474,1,474,-1,-1,0.615408055891137,0.4055156065795444,1.2369403071801852,0.7394270839711269,0.252369299605287,0.640367865562439,1.0
475,1,475,-1,-1,0.3689375648668135,0.30419748742998376,1.2369403071801852,0.7394270839711269,0.252369299605287,6.126126289367676,0.0
476,1,476,-1,-1,-0.11494723315323141,0.1052840296091133,1.2369403071801852,0.7394270839711269,0.252369299605287,1.4263681173324585,0.0
477,1,477,-1,-1,-1.8174135904325723,-0.5945591383014992,1.2369403071801852,0.7394270839711269,0.252369299605287,1.832387089729309,0.0
478,1,478,-1,1,-0.3795344555272397,-0.003481444142044654,1.2369403071801852,0.7394270839711269,0.252369299605287,0.6933671832084656,1.0
479,1,479,-1,1,0.02906089867444897,0.16448232551214148,1.2369403071801852,0.7394270839711269,0.252369299605287,1.5123721361160278,0.0
480,1,480,-1,-1,-0.03141532728217164,0.1396219966276425,1.2369403071801852,0.7394270839711269,0.252369299605287,4.223263740539551,0.0
481,1,481,-1,1,1.0277080384174142,0.5750022602610864,1.2369403071801852,0.7394270839711269,0.252369299605287,0.33736932277679443,1.0
482,1,482,-1,-1,-1.2082879374161017,-0.3441621628547056,1.2369403071801852,0.7394270839711269,0.252369299605287,0.3133692741394043,1.0
483,1,483,-1,1,1.3879667780299443,0.7230960046807,1.2369403071801852,0.7394270839711269,0.252369299605287,0.7363666296005249,1.0
484,1,484,1,-1,-1.1802202393862506,-0.9795254157341122,1.2369403071801852,0.7394270839711269,0.252369299605287,3.129343271255493,0.0
485,1,485,1,1,-1.4252057240141554,-1.0802330843003802,1.2369403071801852,0.7394270839711269,0.252369299605287,1.0393627882003784,0.0
486,1,486,-1,-1,-0.10528681563763898,0.10925519601046033,1.2369403071801852,0.7394270839711269,0.252369299605287,2.4213945865631104,1.0
487,1,487,-1,1,-0.20871815063880111,0.0667370500048532,1.2369403071801852,0.7394270839711269,0.252369299605287,0.3883694112300873,1.0
488,1,488,-1,-1,-1.0446984832653634,-0.27691445405852194,1.2369403071801852,0.7394270839711269,0.252369299605287,2.2634060382843018,1.0
489,1,489,1,-1,0.300168402299967,-0.3709730808778542,1.2369403071801852,0.7394270839711269,0.252369299605287,1.3283635377883911,1.0
490,1,490,1,1,-0.4302179461132676,-0.6712174256113648,1.2369403071801852,0.7394270839711269,0.252369299605287,1.0523625612258911,1.0
491,1,491,1,1,-0.8842578762371025,-0.8578623726302151,1.2369403071801852,0.7394270839711269,0.252369299605287,0.6063683032989502,1.0
492,1,492,1,-1,-0.3541678635389055,-0.639955057059331,1.2369403071801852,0.7394270839711269,0.252369299605287,2.1294009685516357,0.0
493,1,493,1,1,-0.37091916827210836,-0.6468411174628126,1.2369403071801852,0.7394270839711269,0.252369299605287,3.5473129749298096,0.0
494,1,494,-1,1,-0.08907302690527978,0.11592029645239865,1.2369403071801852,0.7394270839711269,0.252369299605287,1.286361575126648,1.0
495,1,495,1,-1,-1.1406918607648702,-0.9632762454650647,1.2369403071801852,0.7394270839711269,0.252369299605287,1.170361042022705,0.0
496,1,496,1,-1,-0.5271964951103273,-0.7110829857496206,1.2369403071801852,0.7394270839711269,0.252369299605287,4.067275047302246,0.0
497,1,497,-1,1,0.2260398024712877,0.24545563782184265,1.2369403071801852,0.7394270839711269,0.252369299605287,1.8643885850906372,1.0
498,1,498,1,1,-0.538282333746038,-0.7156401086534528,1.2369403071801852,0.7394270839711269,0.252369299605287,1.9543927907943726,0.0
499,1,499,-1,-1,0.8360806871536061,0.49622884309876497,1.2369403071801852,0.7394270839711269,0.252369299605287,0.7343666553497314,1.0
500,1,500,-1,1,0.14921072031029017,0.2138730411864867,1.2369403071801852,0.7394270839711269,0.252369299605287,0.8743648529052734,0.0
501,1,501,-1,-1,0.08553410324412698,0.1876971081239207,1.2369403071801852,0.7394270839711269,0.252369299605287,4.598237037658691,0.0
502,1,502,-1,-1,-0.17814527500689786,0.07930482736085392,1.2369403071801852,0.7394270839711269,0.252369299605287,1.7083812952041626,1.0
503,1,503,1,1,-0.27048165712026195,-0.6055536607791487,1.2369403071801852,0.7394270839711269,0.252369299605287,1.284361481666565,0.0
504,1,504,-1,1,2.65782917300404,1.245106038834585,1.2369403071801852,0.7394270839711269,0.252369299605287,1.1653611660003662,1.0
505,1,505,1,-1,0.06476760846879427,-0.46774071248424476,1.2369403071801852,0.7394270839711269,0.252369299605287,1.6023763418197632,0.0
506,1,506,-1,-1,-0.5009913294378854,-0.053409457719935965,1.2369403071801852,0.7394270839711269,0.252369299605287,1.5773751735687256,1.0
507,1,507,1,-1,0.7137823709264548,-0.20094627896311512,1.2369403071801852,0.7394270839711269,0.252369299605287,0.6663675308227539,1.0
508,1,508,1,-1,-0.3669105246325381,-0.6451932600166161,1.2369403071801852,0.7394270839711269,0.252369299605287,0.6003683805465698,1.0
509,1,509,1,-1,0.4168998592209793,-0.32298757311312243,1.2369403071801852,0.7394270839711269,0.252369299605287,1.2673606872558594,0.0
510,1,510,-1,-1,-1.637114199131575,-0.5204423743249753,1.2369403071801852,0.7394270839711269,0.252369299605287,1.7513833045959473,0.0
511,1,511,1,-1,-1.1263208646876681,-0.9573686729731344,1.2369403071801852,0.7394270839711269,0.252369299605287,2.9933531284332275,0.0
512,1,512,-1,-1,-1.6764962784844069,-0.5366314044666562,1.2369403071801852,0.7394270839711269,0.252369299605287,1.1693611145019531,1.0
513,1,513,-1,-1,0.5309841186709201,0.37081094682573706,1.2369403071801852,0.7394270839711269,0.252369299605287,1.1713610887527466,0.0
514,1,514,1,-1,-0.024415965024627354,-0.5044019447795882,1.2369403071801852,0.7394270839711269,0.252369299605287,0.3853694200515747,1.0
515,1,515,-1,-1,-2.193121873817738,-0.7490038203536742,1.2369403071801852,0.7394270839711269,0.252369299605287,2.6513779163360596,0.0
516,1,516,-1,1,0.7421619464016879,0.4576210968881224,1.2369403071801852,0.7394270839711269,0.252369299605287,1.0703623294830322,1.0
517,1,517,1,1,0.7379816690714471,-0.19099852674904538,1.2369403071801852,0.7394270839711269,0.252369299605287,0.45436954498291016,1.0
518,1,518,-1,-1,-1.0209511581219612,-0.2671524971266265,1.2369403071801852,0.7394270839711269,0.252369299605287,0.6823673248291016,1.0
519,1,519,-1,-1,0.6383137154746036,0.4149315749465158,1.2369403071801852,0.7394270839711269,0.252369299605287,0.31636926531791687,1.0
520,1,520,-1,-1,-1.3064330994469278,-0.38450728968618025,1.2369403071801852,0.7394270839711269,0.252369299605287,0.5833685994148254,1.0
521,1,521,1,-1,0.2506583151082074,-0.39132549261019745,1.2369403071801852,0.7394270839711269,0.252369299605287,1.6073765754699707,0.0
522,1,522,-1,1,-0.6348399873742772,-0.10843143709137237,1.2369403071801852,0.7394270839711269,0.252369299605287,1.6583789587020874,0.0
523,1,523,1,1,0.26837367216194313,-0.38404313337405555,1.2369403071801852,0.7394270839711269,0.252369299605287,1.4023669958114624,0.0
524,1,524,1,1,1.1685244736163578,-0.014012685610106157,1.2369403071801852,0.7394270839711269,0.252369299605287,1.1233617067337036,0.0
525,1,525,1,-1,-0.8608317276673264,-0.8482324436998036,1.2369403071801852,0.7394270839711269,0.252369299605287,0.6633675694465637,1.0
526,1,526,-1,-1,0.7998859160748356,0.48135003909464574,1.2369403071801852,0.7394270839711269,0.252369299605287,0.3413693308830261,1.0
527,1,527,1,-1,-1.0559676036960068,-0.9284481314101698,1.2369403071801852,0.7394270839711269,0.252369299605287,0.4533695578575134,1.0
528,1,528,-1,-1,0.8076421592447078,0.4845384450022744,1.2369403071801852,0.7394270839711269,0.252369299605287,1.7463830709457397,0.0
529,1,529,1,1,-0.49280826096624886,-0.6969468058366716,1.2369403071801852,0.7394270839711269,0.252369299605287,3.2233364582061768,0.0
530,1,530,1,-1,2.2396738784174137,0.42631119483326957,1.2369403071801852,0.7394270839711269,0.252369299605287,1.8443876504898071,0.0
531,1,531,-1,1,1.212786075866983,0.6510834112838744,1.2369403071801852,0.7394270839711269,0.252369299605287,1.4943712949752808,1.0
532,1,532,1,-1,-0.177798187230589,-0.5674537048515652,1.2369403071801852,0.7394270839711269,0.252369299605287,0.5193694233894348,1.0
533,1,533,-1,-1,-0.7317427986395617,-0.148265863261013,1.2369403071801852,0.7394270839711269,0.252369299605287,0.5933684706687927,1.0
534,1,534,-1,-1,1.5588485537875052,0.7933414123347322,1.2369403071801852,0.7394270839711269,0.252369299605287,0.9283641576766968,1.0
535,1,535,-1,-1,0.12841449647340009,0.2053242113618282,1.2369403071801852,0.7394270839711269,0.252369299605287,0.5773686766624451,1.0
536,1,536,1,1,-0.1065784335216043,-0.5381769688735565,1.2369403071801852,0.7394270839711269,0.252369299605287,0.893364667892456,1.0
537,1,537,1,-1,0.3143511584176273,-0.36514288932743266,1.2369403071801852,0.7394270839711269,0.252369299605287,1.532373070716858,0.0
538,1,538,1,1,0.43361417776094013,-0.31611671684835224,1.2369403071801852,0.7394270839711269,0.252369299605287,0.9093644618988037,1.0
539,1,539,-1,1,1.3096928053099393,0.6909194481225671,1.2369403071801852,0.7394270839711269,0.252369299605287,2.0273962020874023,1.0
540,1,540,1,1,-0.1878178615430115,-0.5715725531226372,1.2369403071801852,0.7394270839711269,0.252369299605287,0.7933659553527832,0.0
541,1,541,-1,1,-1.3790182353993958,-0.41434530162162714,1.2369403071801852,0.7394270839711269,0.252369299605287,1.7783845663070679,1.0
542,1,542,1,1,-1.0225966423145096,-0.9147301279796809,1.2369403071801852,0.7394270839711269,0.252369299605287,0.4693695902824402,1.0
543,1,543,-1,1,1.6335195494586343,0.8240368712717503,1.2369403071801852,0.7394270839711269,0.252369299605287,0.5323692560195923,1.0
544,1,544,1,-1,0.7882436152591646,-0.17033704378054915,1.2369403071801852,0.7394270839711269,0.252369299605287,1.3173630237579346,0.0
545,1,545,-1,-1,0.1821345062969289,0.22740722151608933,1.2369403071801852,0.7394270839711269,0.252369299605287,0.5143694877624512,1.0
546,1,546,1,-1,0.2082917076010326,-0.4087413908361274,1.2369403071801852,0.7394270839711269,0.252369299605287,0.9513639211654663,1.0
547,1,547,1,1,1.976749670711983,0.3182293466051434,1.2369403071801852,0.7394270839711269,0.252369299605287,0.4083694517612457,1.0
548,1,548,-1,1,-0.1888746600701165,0.07489423398832147,1.2369403071801852,0.7394270839711269,0.252369299605287,1.5473737716674805,1.0
549,1,549,-1,1,0.6034343943083103,0.4005935209137774,1.2369403071801852,0.7394270839711269,0.252369299605287,0.6353679299354553,1.0
550,1,550,1,-1,0.9578350133111331,-0.10062207951379559,1.2369403071801852,0.7394270839711269,0.252369299605287,1.3033623695373535,1.0
551,1,551,-1,1,0.8744683783497077,0.5120091040716672,1.2369403071801852,0.7394270839711269,0.252369299605287,1.3533647060394287,1.0
552,1,552,1,-1,0.2181016480193157,-0.40470875914858145,1.2369403071801852,0.7394270839711269,0.252369299605287,2.471390962600708,0.0
553,1,553,1,1,-1.9168543139789638,-1.2823380511495437,1.2369403071801852,0.7394270839711269,0.252369299605287,1.081362247467041,1.0
554,1,554,-1,-1,-1.21929709535896,-0.34868776416119523,1.2369403071801852,0.7394270839711269,0.252369299605287,0.9723635911941528,0.0
555,1,555,-1,1,0.37562272280656994,0.306945595837846,1.2369403071801852,0.7394270839711269,0.252369299605287,0.4643695652484894,1.0
556,1,556,1,-1,0.502500710690027,-0.2877991120831612,1.2369403071801852,0.7394270839711269,0.252369299605287,0.43536949157714844,1.0
557,1,557,1,1,1.3623619085505643,0.06566924404682378,1.2369403071801852,0.7394270839711269,0.252369299605287,0.640367865562439,1.0
558,1,558,1,1,0.23890623038606218,-0.3961564933323753,1.2369403071801852,0.7394270839711269,0.252369299605287,0.9003645181655884,1.0
559,1,559,-1,1,0.06639595805940948,0.17982987474410228,1.2369403071801852,0.7394270839711269,0.252369299605287,1.1643611192703247,0.0
560,1,560,1,1,0.4005282245412023,-0.3297175602457201,1.2369403071801852,0.7394270839711269,0.252369299605287,3.369325876235962,1.0
561,1,561,-1,1,-0.30789005125486246,0.025969855517806506,1.2369403071801852,0.7394270839711269,0.252369299605287,2.1184005737304688,1.0
562,1,562,1,-1,0.6762386375674687,-0.21637960907081427,1.2369403071801852,0.7394270839711269,0.252369299605287,0.7123669385910034,1.0
563,1,563,-1,1,1.3008064878013454,0.6872664957046337,1.2369403071801852,0.7394270839711269,0.252369299605287,0.36536937952041626,1.0
564,1,564,1,-1,-1.496346007794612,-1.1094771520930253,1.2369403071801852,0.7394270839711269,0.252369299605287,3.1403424739837646,0.0
565,1,565,-1,-1,0.8605638117474214,0.5062932695720539,1.2369403071801852,0.7394270839711269,0.252369299605287,1.4733703136444092,1.0
566,1,566,-1,-1,-1.6480833981769343,-0.5249515494851908,1.2369403071801852,0.7394270839711269,0.252369299605287,1.4403687715530396,0.0
567,1,567,1,-1,-0.8093757724856068,-0.8270801322146066,1.2369403071801852,0.7394270839711269,0.252369299605287,3.0973455905914307,0.0
568,1,568,-1,-1,1.3422233769548773,0.7042919874485829,1.2369403071801852,0.7394270839711269,0.252369299605287,1.2343602180480957,1.0
569,1,569,1,-1,-0.019944264940589776,-0.5025637359131527,1.2369403071801852,0.7394270839711269,0.252369299605287,0.7943658828735352,1.0
570,1,570,1,1,0.21905059935221577,-0.4043186679704679,1.2369403071801852,0.7394270839711269,0.252369299605287,0.44536954164505005,1.0
571,1,571,1,-1,0.7184543066943025,-0.19902575800006328,1.2369403071801852,0.7394270839711269,0.252369299605287,1.8583883047103882,1.0
572,1,572,1,1,0.41272945032144615,-0.3247019283855497,1.2369403071801852,0.7394270839711269,0.252369299605287,0.40036943554878235,1.0
573,1,573,1,1,0.9989821839371404,-0.08370746260031814,1.2369403071801852,0.7394270839711269,0.252369299605287,1.272360920906067,1.0
574,1,574,1,-1,-0.44789535423488813,-0.6784841849498895,1.2369403071801852,0.7394270839711269,0.252369299605287,4.087273597717285,0.0
575,1,575,1,-1,2.2483659353837466,0.42988429139225187,1.2369403071801852,0.7394270839711269,0.252369299605287,0.7463665008544922,1.0
576,1,576,1,-1,0.5126393036792578,-0.2836313791905838,1.2369403071801852,0.7394270839711269,0.252369299605287,4.047276496887207,0.0
577,1,577,1,1,0.33594692304196205,-0.35626538742348957,1.2369403071801852,0.7394270839711269,0.252369299605287,1.6153769493103027,1.0
578,1,578,1,-1,0.9329162836493843,-0.11086557280352821,1.2369403071801852,0.7394270839711269,0.252369299605287,0.8923646211624146,1.0
579,1,579,1,1,1.0179077843363613,-0.07592760129417908,1.2369403071801852,0.7394270839711269,0.252369299605287,1.1723610162734985,1.0
580,1,580,1,1,-1.2017967017624152,-0.9883949829458661,1.2369403071801852,0.7394270839711269,0.252369299605287,3.3743255138397217,0.0
581,1,581,1,-1,-0.602727064335624,-0.7421317947993317,1.2369403071801852,0.7394270839711269,0.252369299605287,3.667304277420044,0.0
582,1,582,1,-1,1.6504879299232205,0.18411095462321375,1.2369403071801852,0.7394270839711269,0.252369299605287,4.052276134490967,0.0
583,1,583,1,1,0.6660441774977954,-0.22057030758288348,1.2369403071801852,0.7394270839711269,0.252369299605287,0.5313692688941956,1.0
584,1,584,1,1,0.7176689733491853,-0.1993485897398875,1.2369403071801852,0.7394270839711269,0.252369299605287,0.5623688697814941,0.0
585,1,585,-1,1,0.24990307993666083,0.25526525997777494,1.2369403071801852,0.7394270839711269,0.252369299605287,0.5763686895370483,1.0
586,1,586,1,1,-0.6773228173835142,-0.7727963232950025,1.2369403071801852,0.7394270839711269,0.252369299605287,0.7053670287132263,1.0
587,1,587,-1,-1,0.9847776167022022,0.5573545915101303,1.2369403071801852,0.7394270839711269,0.252369299605287,2.620380163192749,0.0
588,1,588,-1,-1,-0.37417646460192494,-0.0012789023257112342,1.2369403071801852,0.7394270839711269,0.252369299605287,3.3753254413604736,0.0
589,1,589,-1,-1,1.4775960265095396,0.7599404432948345,1.2369403071801852,0.7394270839711269,0.252369299605287,0.8583650588989258,1.0
590,1,590,-1,-1,-0.9366007413897165,-0.23247805988558057,1.2369403071801852,0.7394270839711269,0.252369299605287,0.3443693220615387,1.0
591,1,591,-1,-1,-0.28792273558953746,0.034177941034529244,1.2369403071801852,0.7394270839711269,0.252369299605287,0.7603663206100464,1.0
592,1,592,-1,-1,-1.0460043417751235,-0.2774512612338332,1.2369403071801852,0.7394270839711269,0.252369299605287,2.1064000129699707,0.0
593,1,593,1,-1,-0.731893613896273,-0.7952290714921101,1.2369403071801852,0.7394270839711269,0.252369299605287,0.32436928153038025,1.0
594,1,594,1,1,-1.0428167908515988,-0.9230421470379805,1.2369403071801852,0.7394270839711269,0.252369299605287,4.53624153137207,0.0
595,1,595,-1,-1,0.4850895665096113,0.35194479500013653,1.2369403071801852,0.7394270839711269,0.252369299605287,0.47136956453323364,1.0
596,1,596,1,-1,-0.9459958553882591,-0.883241378050676,1.2369403071801852,0.7394270839711269,0.252369299605287,3.094345808029175,0.0
597,1,597,1,-1,-0.5270715513370238,-0.7110316243551674,1.2369403071801852,0.7394270839711269,0.252369299605287,0.6653675436973572,0.0
598,1,598,-1,-1,-1.2722581654078955,-0.3704587923406974,1.2369403071801852,0.7394270839711269,0.252369299605287,1.4613697528839111,1.0
599,1,599,-1,-1,0.7313701430372399,0.4531848448460479,1.2369403071801852,0.7394270839711269,0.252369299605287,3.904287099838257,1.0
600,1,600,1,-1,0.48364084819944897,-0.29555195010861124,1.2369403071801852,0.7394270839711269,0.252369299605287,0.6653675436973572,1.0
601,1,601,1,-1,1.3355506426425516,0.05464777440748064,1.2369403071801852,0.7394270839711269,0.252369299605287,0.42636948823928833,1.0
602,1,602,1,-1,1.1342431961913941,-0.02810489817602685,1.2369403071801852,0.7394270839711269,0.252369299605287,0.30236929655075073,1.0
603,1,603,-1,1,-2.2261107636358135,-0.7625647633100043,1.2369403071801852,0.7394270839711269,0.252369299605287,1.0533626079559326,1.0
604,1,604,1,-1,-2.459080098655587,-1.5052340920894245,1.2369403071801852,0.7394270839711269,0.252369299605287,1.3703655004501343,0.0
605,1,605,1,-1,-0.4640493870636056,-0.6851247211702047,1.2369403071801852,0.7394270839711269,0.252369299605287,0.8043657541275024,1.0
606,1,606,-1,1,1.6309115676491723,0.8229647923765737,1.2369403071801852,0.7394270839711269,0.252369299605287,0.4203694760799408,1.0
607,1,607,1,-1,-1.5934625598705758,-1.1493994419936688,1.2369403071801852,0.7394270839711269,0.252369299605287,2.261406183242798,0.0
608,1,608,-1,1,2.221268452085492,1.0656463763239987,1.2369403071801852,0.7394270839711269,0.252369299605287,0.2923693060874939,1.0
609,1,609,1,-1,0.13089006181527701,-0.44055935467229046,1.2369403071801852,0.7394270839711269,0.252369299605287,0.7463665008544922,1.0
610,1,610,1,1,-0.1757421086785279,-0.566608500174718,1.2369403071801852,0.7394270839711269,0.252369299605287,1.0873621702194214,1.0
611,1,611,1,-1,-0.22546534161724835,-0.5870485310216135,1.2369403071801852,0.7394270839711269,0.252369299605287,0.8153656721115112,0.0
612,1,612,1,1,1.1263830431378061,-0.03133601894958277,1.2369403071801852,0.7394270839711269,0.252369299605287,0.3713693618774414,1.0
613,1,613,1,1,1.4627947873455633,0.10695479647947131,1.2369403071801852,0.7394270839711269,0.252369299605287,0.4063694477081299,1.0
614,1,614,1,1,-0.11817310812446431,-0.542943262063588,1.2369403071801852,0.7394270839711269,0.252369299605287,1.8273868560791016,0.0
615,1,615,1,-1,-0.4849351487522554,-0.6937103578624736,1.2369403071801852,0.7394270839711269,0.252369299605287,1.3663653135299683,0.0
616,1,616,1,1,-1.3101636587043741,-1.032942044988426,1.2369403071801852,0.7394270839711269,0.252369299605287,2.0733983516693115,0.0
617,1,617,-1,1,0.977933545092548,0.5545411574964552,1.2369403071801852,0.7394270839711269,0.252369299605287,0.9843634366989136,1.0
618,1,618,1,-1,-1.130477456848146,-0.9590773485148644,1.2369403071801852,0.7394270839711269,0.252369299605287,1.310362696647644,1.0
619,1,619,1,-1,-0.8480806613573967,-0.8429907855592924,1.2369403071801852,0.7394270839711269,0.252369299605287,4.147269248962402,0.0
620,1,620,-1,1,-1.497685290143052,-0.4631264873192636,1.2369403071801852,0.7394270839711269,0.252369299605287,1.4623697996139526,0.0
621,1,621,-1,1,-0.3574989685789851,0.005576817083724234,1.2369403071801852,0.7394270839711269,0.252369299605287,1.2123605012893677,1.0
622,1,622,1,-1,1.2145579306064118,0.004910566665656868,1.2369403071801852,0.7394270839711269,0.252369299605287,1.0713623762130737,0.0
623,1,623,1,1,-0.5575428326450234,-0.7235576387164526,1.2369403071801852,0.7394270839711269,0.252369299605287,0.43636950850486755,1.0
624,1,624,-1,1,-0.558807469853162,-0.0771762891122775,1.2369403071801852,0.7394270839711269,0.252369299605287,1.3493645191192627,1.0
625,1,625,1,1,-1.0727481213688428,-0.9353462005538706,1.2369403071801852,0.7394270839711269,0.252369299605287,1.679379940032959,0.0
626,1,626,1,-1,3.457935650826102,0.927109448203395,1.2369403071801852,0.7394270839711269,0.252369299605287,0.5643688440322876,1.0
627,1,627,1,-1,-0.7667204933361959,-0.8095455679864237,1.2369403071801852,0.7394270839711269,0.252369299605287,3.002352476119995,0.0
628,1,628,1,-1,-1.898590978215257,-1.27483043098258,1.2369403071801852,0.7394270839711269,0.252369299605287,0.7703661918640137,1.0
629,1,629,1,-1,0.5101437315131002,-0.284657249172123,1.2369403071801852,0.7394270839711269,0.252369299605287,2.170403003692627,0.0
630,1,630,-1,-1,0.13675624965621924,0.20875330642055348,1.2369403071801852,0.7394270839711269,0.252369299605287,0.3413693308830261,1.0
631,1,631,1,1,0.22822598074146283,-0.4005468883104572,1.2369403071801852,0.7394270839711269,0.252369299605287,1.177361011505127,0.0
632,1,632,1,-1,2.3845190800017155,0.48585359007648815,1.2369403071801852,0.7394270839711269,0.252369299605287,1.9913945198059082,1.0
633,1,633,1,-1,-0.43665080088795,-0.6738618182273911,1.2369403071801852,0.7394270839711269,0.252369299605287,1.441368818283081,0.0
634,1,634,-1,1,0.2500079504468102,0.2553083697342347,1.2369403071801852,0.7394270839711269,0.252369299605287,0.5483690500259399,1.0
635,1,635,1,1,0.04269686282331306,-0.4768134677164637,1.2369403071801852,0.7394270839711269,0.252369299605287,3.2883317470550537,0.0
636,1,636,-1,-1,-0.8303014303291468,-0.1887809575720702,1.2369403071801852,0.7394270839711269,0.252369299605287,2.2744052410125732,1.0
637,1,637,1,-1,-0.40504248787152175,-0.6608683973476516,1.2369403071801852,0.7394270839711269,0.252369299605287,2.2934038639068604,1.0
638,1,638,-1,-1,0.34026694268036123,0.2924116809315809,1.2369403071801852,0.7394270839711269,0.252369299605287,0.5683687925338745,1.0
639,1,639,1,-1,1.5468592548922375,0.14151168685503263,1.2369403071801852,0.7394270839711269,0.252369299605287,1.542373538017273,0.0
640,1,640,-1,1,2.2728391391988207,1.0868458513599668,1.2369403071801852,0.7394270839711269,0.252369299605287,0.42236948013305664,1.0
641,1,641,-1,1,-0.28272647261555306,0.03631400036131756,1.2369403071801852,0.7394270839711269,0.252369299605287,1.8543881177902222,0.0
642,1,642,1,-1,-1.5334687331262964,-1.1247374158782784,1.2369403071801852,0.7394270839711269,0.252369299605287,1.1533613204956055,0.0
643,1,643,-1,1,-0.910864421965357,-0.22189847501490706,1.2369403071801852,0.7394270839711269,0.252369299605287,1.7453830242156982,0.0
644,1,644,-1,1,-1.1747438418318665,-0.33037298809774696,1.2369403071801852,0.7394270839711269,0.252369299605287,2.17240309715271,0.0
645,1,645,1,-1,0.7044198066405201,-0.20479500503139786,1.2369403071801852,0.7394270839711269,0.252369299605287,0.7903659343719482,1.0
646,1,646,1,1,0.0051591641667492055,-0.4922443171024484,1.2369403071801852,0.7394270839711269,0.252369299605287,2.6473782062530518,1.0
647,1,647,-1,1,0.8928142553801883,0.5195506549776293,1.2369403071801852,0.7394270839711269,0.252369299605287,1.3733656406402588,0.0
648,1,648,-1,1,-0.7880165182980657,-0.17139864240083552,1.2369403071801852,0.7394270839711269,0.252369299605287,0.5683687925338745,1.0
649,1,649,-1,1,-1.4314860185097098,-0.4359135513483641,1.2369403071801852,0.7394270839711269,0.252369299605287,0.44536954164505005,1.0
650,1,650,1,1,-0.33538662766971905,-0.6322345405558667,1.2369403071801852,0.7394270839711269,0.252369299605287,0.4643695652484894,1.0
651,1,651,-1,1,-0.11540416205277614,0.10509619707591816,1.2369403071801852,0.7394270839711269,0.252369299605287,3.6383063793182373,1.0
652,1,652,-1,1,1.0563285153357056,0.5867674532400646,1.2369403071801852,0.7394270839711269,0.252369299605287,0.3833693861961365,1.0
653,1,653,1,1,-0.8373023531490214,-0.8385600810528488,1.2369403071801852,0.7394270839711269,0.252369299605287,0.9333641529083252,0.0
654,1,654,-1,-1,0.38418447482679124,0.3104651271525629,1.2369403071801852,0.7394270839711269,0.252369299605287,0.33736932277679443,1.0
655,1,655,1,1,-0.582003423736903,-0.7336128022064753,1.2369403071801852,0.7394270839711269,0.252369299605287,3.0133516788482666,0.0
656,1,656,1,1,0.7760205957136516,-0.17536163453594905,1.2369403071801852,0.7394270839711269,0.252369299605287,0.7603663206100464,1.0
657,1,657,-1,-1,0.5830066227946009,0.3921961530196154,1.2369403071801852,0.7394270839711269,0.252369299605287,0.35936933755874634,1.0
658,1,658,1,-1,-1.0429456059117217,-0.923095099825779,1.2369403071801852,0.7394270839711269,0.252369299605287,1.5913758277893066,0.0
659,1,659,1,-1,-1.2158965654265605,-0.9941910993928265,1.2369403071801852,0.7394270839711269,0.252369299605287,0.9473639726638794,0.0
660,1,660,1,1,0.933698177337289,-0.11054415502444975,1.2369403071801852,0.7394270839711269,0.252369299605287,0.5993683934211731,1.0
661,1,661,-1,1,-0.17634531665954323,0.08004474715223993,1.2369403071801852,0.7394270839711269,0.252369299605287,1.1283615827560425,1.0
662,1,662,1,1,-0.9349332488522795,-0.8786938053069415,1.2369403071801852,0.7394270839711269,0.252369299605287,0.9353641271591187,0.0
663,1,663,-1,1,0.25205217461161333,0.2561487013562361,1.2369403071801852,0.7394270839711269,0.252369299605287,1.7973854541778564,1.0
664,1,664,-1,-1,-1.1432992541298528,-0.31744687077570605,1.2369403071801852,0.7394270839711269,0.252369299605287,3.559312105178833,0.0
665,1,665,-1,1,-0.6903771503271737,-0.13126143540031732,1.2369403071801852,0.7394270839711269,0.252369299605287,2.388396978378296,1.0
666,1,666,1,1,0.9418872100587996,-0.10717783969173195,1.2369403071801852,0.7394270839711269,0.252369299605287,1.0433627367019653,1.0
667,1,667,1,1,-1.322373816365327,-1.0379613485309553,1.2369403071801852,0.7394270839711269,0.252369299605287,1.9743937253952026,0.0
668,1,668,1,1,-0.05818319946211077,-0.5182828465778909,1.2369403071801852,0.7394270839711269,0.252369299605287,1.5963760614395142,0.0
669,1,669,-1,-1,0.8949740125879131,0.5204384794680864,1.2369403071801852,0.7394270839711269,0.252369299605287,0.522369384765625,1.0
670,1,670,-1,-1,1.5933558453667622,0.8075265339094313,1.2369403071801852,0.7394270839711269,0.252369299605287,1.1983606815338135,1.0
671,1,671,-1,1,0.39055502969918604,0.313083909770018,1.2369403071801852,0.7394270839711269,0.252369299605287,2.3763978481292725,0.0
672,1,672,-1,1,1.2280939595859013,0.6573761158592384,1.2369403071801852,0.7394270839711269,0.252369299605287,3.6613047122955322,1.0
673,1,673,-1,1,-0.20052505215518573,0.070105036675051,1.2369403071801852,0.7394270839711269,0.252369299605287,0.5823686122894287,1.0
674,1,674,-1,-1,-0.5663596107805906,-0.08028079347358855,1.2369403071801852,0.7394270839711269,0.252369299605287,1.1163617372512817,0.0
675,1,675,1,-1,0.8444424051468741,-0.14723506647592266,1.2369403071801852,0.7394270839711269,0.252369299605287,1.9583929777145386,1.0
676,1,676,-1,-1,-1.17157620359783,-0.32907084784280205,1.2369403071801852,0.7394270839711269,0.252369299605287,1.8473877906799316,0.0
677,1,677,-1,-1,1.119135296735871,0.6125858176814061,1.2369403071801852,0.7394270839711269,0.252369299605287,1.4763704538345337,1.0
678,1,678,1,1,0.5181673189579535,-0.2813589444324114,1.2369403071801852,0.7394270839711269,0.252369299605287,2.0793986320495605,0.0
679,1,679,-1,-1,0.23379100083147875,0.24864196992896787,1.2369403071801852,0.7394270839711269,0.252369299605287,1.5613744258880615,0.0
680,1,680,1,1,0.5776187445627535,-0.2569198864421227,1.2369403071801852,0.7394270839711269,0.252369299605287,1.961393117904663,0.0
681,1,681,1,1,-0.7793618965691379,-0.8147421462609664,1.2369403071801852,0.7394270839711269,0.252369299605287,1.95939302444458,0.0
682,1,682,-1,1,0.39533522549210925,0.31504893383798166,1.2369403071801852,0.7394270839711269,0.252369299605287,0.6523677110671997,1.0
683,1,683,1,1,1.525993014961567,0.13293407509018101,1.2369403071801852,0.7394270839711269,0.252369299605287,0.6103682518005371,1.0
684,1,684,-1,-1,-1.1860782179185383,-0.33503227879848246,1.2369403071801852,0.7394270839711269,0.252369299605287,0.37736940383911133,1.0
685,1,685,1,1,-0.3673352564018095,-0.6453678570802517,1.2369403071801852,0.7394270839711269,0.252369299605287,4.157268524169922,0.0
686,1,686,-1,1,0.11360217032796056,0.19923521864286742,1.2369403071801852,0.7394270839711269,0.252369299605287,1.7603837251663208,1.0
687,1,687,1,1,1.137319730008878,-0.026840208765980145,1.2369403071801852,0.7394270839711269,0.252369299605287,0.4203694760799408,1.0
688,1,688,1,1,0.6245879004919539,-0.2376119907300986,1.2369403071801852,0.7394270839711269,0.252369299605287,2.9683549404144287,0.0
689,1,689,1,-1,0.004676580927354609,-0.49244269552067355,1.2369403071801852,0.7394270839711269,0.252369299605287,1.306362509727478,0.0
690,1,690,1,1,0.827521329530586,-0.15419091562567183,1.2369403071801852,0.7394270839711269,0.252369299605287,1.6683794260025024,1.0
691,1,691,-1,1,0.7726628526005269,0.47015928933290707,1.2369403071801852,0.7394270839711269,0.252369299605287,0.3493693470954895,1.0
692,1,692,1,1,1.0843680585156608,-0.048607373424197686,1.2369403071801852,0.7394270839711269,0.252369299605287,0.9373641014099121,0.0
693,1,693,1,-1,-0.692807027633175,-0.779161511486465,1.2369403071801852,0.7394270839711269,0.252369299605287,1.2373602390289307,1.0
694,1,694,1,-1,-1.5241174537120064,-1.1208933287506053,1.2369403071801852,0.7394270839711269,0.252369299605287,0.6083682775497437,1.0
695,1,695,1,-1,-0.9495575874737363,-0.8847055208546095,1.2369403071801852,0.7394270839711269,0.252369299605287,1.7473831176757812,0.0
696,1,696,-1,-1,-2.067388432468511,-0.6973178122690469,1.2369403071801852,0.7394270839711269,0.252369299605287,0.6663675308227539,0.0
697,1,697,1,-1,-0.37632975717572525,-0.6490652810489996,1.2369403071801852,0.7394270839711269,0.252369299605287,1.0203629732131958,0.0
698,1,698,1,1,-0.25708108824778425,-0.6000450076821757,1.2369403071801852,0.7394270839711269,0.252369299605287,1.3413641452789307,0.0
699,1,699,-1,-1,0.20567047835591945,0.237082296254096,1.2369403071801852,0.7394270839711269,0.252369299605287,0.743366539478302,1.0
700,1,700,1,1,0.815878027871619,-0.15897719823449363,1.2369403071801852,0.7394270839711269,0.252369299605287,4.998208045959473,1.0
701,1,701,1,-1,-1.6253176528058937,-1.1624943081909467,1.2369403071801852,0.7394270839711269,0.252369299605287,0.8143656253814697,0.0
702,1,702,-1,1,1.4606595463162744,0.7529782616922258,1.2369403071801852,0.7394270839711269,0.252369299605287,0.4243694841861725,1.0
703,1,703,-1,-1,-1.1812672355283476,-0.33305459909731416,1.2369403071801852,0.7394270839711269,0.252369299605287,1.4763704538345337,0.0
704,1,704,1,-1,0.570272667101482,-0.25993968304499293,1.2369403071801852,0.7394270839711269,0.252369299605287,2.9273579120635986,0.0
705,1,705,1,-1,1.8096683037920134,0.24954619605468537,1.2369403071801852,0.7394270839711269,0.252369299605287,0.5103695392608643,1.0
706,1,706,1,-1,-1.4149762626392557,-1.076027997589551,1.2369403071801852,0.7394270839711269,0.252369299605287,2.7763688564300537,0.0
707,1,707,-1,1,-0.03451609900305856,0.13834734359568418,1.2369403071801852,0.7394270839711269,0.252369299605287,1.1063618659973145,0.0
708,1,708,1,1,1.0238578081274023,-0.07348168893810753,1.2369403071801852,0.7394270839711269,0.252369299605287,1.4103673696517944,0.0
709,1,709,1,1,-0.08040570538004806,-0.527417986825464,1.2369403071801852,0.7394270839711269,0.252369299605287,0.6023683547973633,0.0
710,1,710,1,1,0.29616739561324995,-0.3726177989555367,1.2369403071801852,0.7394270839711269,0.252369299605287,0.5773686766624451,1.0
711,1,711,1,1,1.536758362323202,0.1373594517027707,1.2369403071801852,0.7394270839711269,0.252369299605287,0.9393640756607056,1.0
712,1,712,-1,1,-1.3437030989791974,-0.39982809437002326,1.2369403071801852,0.7394270839711269,0.252369299605287,0.7723661661148071,0.0
713,1,713,-1,-1,0.11225578002880597,0.19868174981913675,1.2369403071801852,0.7394270839711269,0.252369299605287,0.9473639726638794,1.0
714,1,714,-1,-1,-0.9960774042597593,-0.2569274923115117,1.2369403071801852,0.7394270839711269,0.252369299605287,1.562374472618103,0.0
715,1,715,1,1,0.29334031065569705,-0.373779945910269,1.2369403071801852,0.7394270839711269,0.252369299605287,1.0483626127243042,0.0
716,1,716,1,1,0.6593081305910266,-0.22333933522696636,1.2369403071801852,0.7394270839711269,0.252369299605287,1.562374472618103,1.0
717,1,717,1,-1,1.1870558264252349,-0.0063948900513385865,1.2369403071801852,0.7394270839711269,0.252369299605287,0.9513639211654663,0.0
718,1,718,-1,1,-0.22521563223514485,0.059955330217225225,1.2369403071801852,0.7394270839711269,0.252369299605287,0.5203694105148315,1.0
719,1,719,-1,1,-1.2632120312825894,-0.36674014313712916,1.2369403071801852,0.7394270839711269,0.252369299605287,2.9933531284332275,0.0
720,1,720,-1,-1,0.8813103384628381,0.514821670099664,1.2369403071801852,0.7394270839711269,0.252369299605287,0.7633663415908813,1.0
721,1,721,-1,-1,-0.48509075974858973,-0.046873114129144966,1.2369403071801852,0.7394270839711269,0.252369299605287,0.5263693332672119,1.0
722,1,722,1,-1,-0.17013129700738028,-0.5643020298014879,1.2369403071801852,0.7394270839711269,0.252369299605287,2.5053884983062744,0.0
723,1,723,1,1,1.4431256497077074,0.09886928481241858,1.2369403071801852,0.7394270839711269,0.252369299605287,2.6743762493133545,0.0
724,1,724,-1,1,2.3296251457433366,1.1101892193761291,1.2369403071801852,0.7394270839711269,0.252369299605287,0.6503677368164062,1.0
725,1,725,1,1,2.502994727897901,0.5345560930007935,1.2369403071801852,0.7394270839711269,0.252369299605287,0.7713662385940552,1.0
726,1,726,1,-1,-0.40483223596633583,-0.6607819678221838,1.2369403071801852,0.7394270839711269,0.252369299605287,2.4873898029327393,1.0
727,1,727,-1,1,-0.14254355382943673,0.09393984274625139,1.2369403071801852,0.7394270839711269,0.252369299605287,3.2873318195343018,1.0
728,1,728,1,-1,0.026517618625290132,-0.4834643677272214,1.2369403071801852,0.7394270839711269,0.252369299605287,1.3823660612106323,0.0
729,1,729,-1,-1,-0.07652348650416381,0.12107911211567823,1.2369403071801852,0.7394270839711269,0.252369299605287,0.6123682260513306,1.0
730,1,730,-1,1,0.34844118630776993,0.2957719168217167,1.2369403071801852,0.7394270839711269,0.252369299605287,0.8913646936416626,1.0
731,1,731,1,-1,0.2516696725854216,-0.3909097477599586,1.2369403071801852,0.7394270839711269,0.252369299605287,0.743366539478302,1.0
732,1,732,-1,-1,-0.4196476914661578,-0.019971035254729458,1.2369403071801852,0.7394270839711269,0.252369299605287,0.43636950850486755,1.0
733,1,733,-1,1,-1.7266057864883584,-0.557230223746686,1.2369403071801852,0.7394270839711269,0.252369299605287,0.6923671960830688,1.0
734,1,734,1,-1,-0.2447047505439332,-0.5949573915018265,1.2369403071801852,0.7394270839711269,0.252369299605287,1.9833941459655762,0.0
735,1,735,1,1,-0.6752055861702045,-0.7719259802229139,1.2369403071801852,0.7394270839711269,0.252369299605287,1.1693611145019531,0.0
736,1,736,1,1,-0.06187798528889128,-0.5198016845899956,1.2369403071801852,0.7394270839711269,0.252369299605287,4.117271423339844,0.0
737,1,737,1,-1,0.49333229051539884,-0.2915680301544712,1.2369403071801852,0.7394270839711269,0.252369299605287,0.5243693590164185,1.0
738,1,738,-1,-1,1.439904893941002,0.7444465209003515,1.2369403071801852,0.7394270839711269,0.252369299605287,1.0003632307052612,1.0
739,1,739,1,1,-0.15618502363578646,-0.5585690506473382,1.2369403071801852,0.7394270839711269,0.252369299605287,1.7723842859268188,0.0
740,1,740,-1,1,-0.2602592395936065,0.045549742063369356,1.2369403071801852,0.7394270839711269,0.252369299605287,3.2043378353118896,0.0
741,1,741,1,-1,-0.3663695456341021,-0.6449708764996558,1.2369403071801852,0.7394270839711269,0.252369299605287,2.8463637828826904,1.0
742,1,742,-1,-1,-0.41059160575528936,-0.016248295192545475,1.2369403071801852,0.7394270839711269,0.252369299605287,1.082362174987793,1.0
743,1,743,-1,-1,0.41185891817754683,0.321841428376927,1.2369403071801852,0.7394270839711269,0.252369299605287,1.687380313873291,1.0
744,1,744,-1,-1,0.40156639499812297,0.3176104184677546,1.2369403071801852,0.7394270839711269,0.252369299605287,1.681380033493042,1.0
745,1,745,-1,1,1.8980135149135329,0.9327640093357328,1.2369403071801852,0.7394270839711269,0.252369299605287,0.5343692302703857,1.0
746,1,746,-1,1,-1.2720305600664394,-0.3703652292329644,1.2369403071801852,0.7394270839711269,0.252369299605287,0.41336947679519653,1.0
747,1,747,1,1,-0.9727734662209797,-0.8942490128941609,1.2369403071801852,0.7394270839711269,0.252369299605287,1.3213632106781006,1.0
748,1,748,-1,-1,-0.6672278473980798,-0.12174531108599629,1.2369403071801852,0.7394270839711269,0.252369299605287,0.8803647756576538,1.0
749,1,749,1,-1,-0.43205223079266336,-0.6719714561361909,1.2369403071801852,0.7394270839711269,0.252369299605287,1.0103631019592285,0.0
