,subj_idx,trial_idx,S,X,M,v,a,z,t,rt,response
0,1,0,-1,-1,-0.37595361094558244,-0.5426632623333594,1.8753511911547665,0.5093051299246693,0.7332351644399921,3.8371925354003906,0.0
1,1,1,1,1,0.2579478958580226,-0.4740555960638057,1.8753511911547665,0.6240309884146408,0.7332351644399921,3.2672338485717773,0.0
2,1,2,-1,1,0.04025574269223353,-0.4747924319207909,1.8753511911547665,0.6240309884146408,0.7332351644399921,1.2782317399978638,1.0
3,1,3,1,1,0.538047782655362,-0.4283799961541871,1.8753511911547665,0.6240309884146408,0.7332351644399921,2.578265428543091,0.0
4,1,4,-1,-1,0.3562273236949478,-0.42326727180128065,1.8753511911547665,0.5093051299246693,0.7332351644399921,3.1312437057495117,0.0
5,1,5,-1,1,-0.024854286574865547,-0.48540985730039954,1.8753511911547665,0.6240309884146408,0.7332351644399921,8.406861305236816,0.0
6,1,6,1,1,0.4406596603912194,-0.4442609768976904,1.8753511911547665,0.6240309884146408,0.7332351644399921,3.060248851776123,1.0
7,1,7,1,1,1.9087848506984348,-0.20485531495173204,1.8753511911547665,0.6240309884146408,0.7332351644399921,1.9872376918792725,0.0
8,1,8,-1,-1,0.9800117020393286,-0.32154739600660487,1.8753511911547665,0.5093051299246693,0.7332351644399921,1.59422767162323,1.0
9,1,9,-1,1,0.7274304100141851,-0.36273556702340437,1.8753511911547665,0.6240309884146408,0.7332351644399921,10.705635070800781,0.0
10,1,10,-1,-1,-2.9460318313695835,-0.9617632693870799,1.8753511911547665,0.5093051299246693,0.7332351644399921,2.425258159637451,0.0
11,1,11,1,1,1.238179159750867,-0.31421029394533795,1.8753511911547665,0.6240309884146408,0.7332351644399921,11.622005462646484,0.0
12,1,12,-1,1,2.0706386170778726,-0.14369998881359597,1.8753511911547665,0.6240309884146408,0.7332351644399921,6.590993404388428,0.0
13,1,13,1,1,1.5051986171561542,-0.27066770617788305,1.8753511911547665,0.6240309884146408,0.7332351644399921,5.926041603088379,0.0
14,1,14,-1,1,1.104439061683838,-0.3012571546862117,1.8753511911547665,0.6240309884146408,0.7332351644399921,3.2812328338623047,0.0
15,1,15,1,-1,-0.2895935933870263,-0.5633426224979454,1.8753511911547665,0.5093051299246693,0.7332351644399921,6.810977458953857,0.0
16,1,16,-1,1,1.4535286183177891,-0.24433148040711036,1.8753511911547665,0.6240309884146408,0.7332351644399921,3.2172374725341797,0.0
17,1,17,-1,-1,-2.099888023042562,-0.8237834704765965,1.8753511911547665,0.5093051299246693,0.7332351644399921,1.0422347784042358,0.0
18,1,18,1,-1,-2.397157082274415,-0.9070208288807645,1.8753511911547665,0.5093051299246693,0.7332351644399921,2.4992616176605225,0.0
19,1,19,-1,-1,-2.141227994559072,-0.8305247370327995,1.8753511911547665,0.5093051299246693,0.7332351644399921,1.1322336196899414,0.0
20,1,20,-1,1,0.9895397204086054,-0.3199936718693243,1.8753511911547665,0.6240309884146408,0.7332351644399921,3.295231819152832,1.0
21,1,21,-1,1,0.07566322205222953,-0.4690185707473825,1.8753511911547665,0.6240309884146408,0.7332351644399921,4.414150714874268,0.0
22,1,22,-1,-1,-1.5432243775237744,-0.7330089034188728,1.8753511911547665,0.5093051299246693,0.7332351644399921,1.1382335424423218,0.0
23,1,23,-1,-1,0.3750383382805611,-0.42019977903671507,1.8753511911547665,0.5093051299246693,0.7332351644399921,10.177421569824219,0.0
24,1,24,1,-1,-2.531973799549546,-0.9290052520442142,1.8753511911547665,0.5093051299246693,0.7332351644399921,3.249235153198242,1.0
25,1,25,-1,-1,-0.8949697721008575,-0.6272986929099763,1.8753511911547665,0.5093051299246693,0.7332351644399921,4.863118648529053,1.0
26,1,26,1,-1,1.2016968958558967,-0.3201594191253472,1.8753511911547665,0.5093051299246693,0.7332351644399921,17.836463928222656,1.0
27,1,27,-1,1,1.0320666999204426,-0.31305884114248206,1.8753511911547665,0.6240309884146408,0.7332351644399921,1.1882328987121582,1.0
28,1,28,1,-1,-2.7661001126049576,-0.9671839886574511,1.8753511911547665,0.5093051299246693,0.7332351644399921,2.4422590732574463,0.0
29,1,29,-1,-1,-2.3546078786405493,-0.8653203748515254,1.8753511911547665,0.5093051299246693,0.7332351644399921,3.0262513160705566,0.0
30,1,30,1,-1,0.9047708868649822,-0.36857883744250464,1.8753511911547665,0.5093051299246693,0.7332351644399921,1.5582281351089478,0.0
31,1,31,-1,-1,-2.0290313124160813,-0.812228939689412,1.8753511911547665,0.5093051299246693,0.7332351644399921,1.2502321004867554,0.0
32,1,32,-1,1,-0.3466364740304462,-0.5378825470266083,1.8753511911547665,0.6240309884146408,0.7332351644399921,5.7430548667907715,0.0
33,1,33,-1,1,1.182116131205828,-0.28859043500201176,1.8753511911547665,0.6240309884146408,0.7332351644399921,2.4682602882385254,1.0
34,1,34,-1,-1,-0.5738807243641726,-0.5749390327634784,1.8753511911547665,0.5093051299246693,0.7332351644399921,6.694985866546631,0.0
35,1,35,1,1,-0.1372981340383288,-0.5385079588756224,1.8753511911547665,0.6240309884146408,0.7332351644399921,3.488217830657959,0.0
36,1,36,-1,1,4.029825955485503,0.17578267160548522,1.8753511911547665,0.6240309884146408,0.7332351644399921,3.3272294998168945,0.0
37,1,37,-1,-1,-2.374467780071533,-0.8685589085131344,1.8753511911547665,0.5093051299246693,0.7332351644399921,1.5152287483215332,0.0
38,1,38,1,1,0.09270022015629353,-0.5010023642601371,1.8753511911547665,0.6240309884146408,0.7332351644399921,3.8871889114379883,0.0
39,1,39,-1,1,0.14801974921939653,-0.45721946642240224,1.8753511911547665,0.6240309884146408,0.7332351644399921,3.9891815185546875,0.0
40,1,40,1,-1,-0.9534110154909272,-0.6715906454862225,1.8753511911547665,0.5093051299246693,0.7332351644399921,4.418150424957275,1.0
41,1,41,-1,1,0.5595711455042971,-0.3901082043155567,1.8753511911547665,0.6240309884146408,0.7332351644399921,4.003180503845215,0.0
42,1,42,-1,-1,-1.432586193182122,-0.7149672487059872,1.8753511911547665,0.5093051299246693,0.7332351644399921,2.181246757507324,0.0
43,1,43,-1,-1,-1.43905853807015,-0.7160226873174156,1.8753511911547665,0.5093051299246693,0.7332351644399921,2.39825701713562,0.0
44,1,44,-1,-1,0.4375451706805611,-0.4100068542877462,1.8753511911547665,0.5093051299246693,0.7332351644399921,1.5302284955978394,0.0
45,1,45,1,1,0.4066402628311706,-0.4498084850023377,1.8753511911547665,0.6240309884146408,0.7332351644399921,3.036250591278076,0.0
46,1,46,1,-1,-0.2251713384534212,-0.5528373517701789,1.8753511911547665,0.5093051299246693,0.7332351644399921,1.8162298202514648,0.0
47,1,47,1,1,-0.36965683219180145,-0.5763984523482483,1.8753511911547665,0.6240309884146408,0.7332351644399921,1.7992289066314697,0.0
48,1,48,-1,1,1.1029066292735958,-0.30150704686024676,1.8753511911547665,0.6240309884146408,0.7332351644399921,2.4312584400177,1.0
49,1,49,1,1,2.9100810602936464,-0.041574973844065,1.8753511911547665,0.6240309884146408,0.7332351644399921,4.396152019500732,1.0
50,1,50,1,1,0.586026369432139,-0.42055617744828894,1.8753511911547665,0.6240309884146408,0.7332351644399921,4.713129043579102,0.0
51,1,51,1,1,1.9558797350734454,-0.19717560068587403,1.8753511911547665,0.6240309884146408,0.7332351644399921,15.875724792480469,1.0
52,1,52,1,1,1.4171194449455942,-0.2850306860286059,1.8753511911547665,0.6240309884146408,0.7332351644399921,1.9812374114990234,0.0
53,1,53,1,1,1.6624607930908715,-0.24502312519985736,1.8753511911547665,0.6240309884146408,0.7332351644399921,4.733127593994141,1.0
54,1,54,-1,-1,-1.8641467019195035,-0.7853413761619621,1.8753511911547665,0.5093051299246693,0.7332351644399921,3.9711828231811523,0.0
55,1,55,-1,1,2.6928873529878876,-0.04223052864828131,1.8753511911547665,0.6240309884146408,0.7332351644399921,1.8062293529510498,1.0
56,1,56,1,-1,-1.786508666711391,-0.8074430210008217,1.8753511911547665,0.5093051299246693,0.7332351644399921,2.8182663917541504,0.0
57,1,57,-1,-1,-1.3653077128929447,-0.7039962162527003,1.8753511911547665,0.5093051299246693,0.7332351644399921,2.9202589988708496,0.0
58,1,58,-1,1,0.15741989975454662,-0.4556865935610706,1.8753511911547665,0.6240309884146408,0.7332351644399921,5.2970871925354,1.0
59,1,59,1,-1,-2.9515551755571794,-0.9974259546699102,1.8753511911547665,0.5093051299246693,0.7332351644399921,1.3902302980422974,0.0
60,1,60,-1,-1,-2.388789077132232,-0.8708942676673657,1.8753511911547665,0.5093051299246693,0.7332351644399921,3.55021333694458,0.0
61,1,61,1,-1,-0.9539135254359852,-0.6716725892651491,1.8753511911547665,0.5093051299246693,0.7332351644399921,2.954256534576416,0.0
62,1,62,-1,-1,-1.228156794344768,-0.6816311572929452,1.8753511911547665,0.5093051299246693,0.7332351644399921,1.5882277488708496,0.0
63,1,63,1,1,1.6504123056762028,-0.2469878596271392,1.8753511911547665,0.6240309884146408,0.7332351644399921,11.057777404785156,1.0
64,1,64,1,1,-0.14994893040037405,-0.5405709112023005,1.8753511911547665,0.6240309884146408,0.7332351644399921,1.5302284955978394,0.0
65,1,65,-1,-1,-1.1464884833145836,-0.6683135899688,1.8753511911547665,0.5093051299246693,0.7332351644399921,2.675269842147827,0.0
66,1,66,1,1,0.0011564368260937874,-0.5159303146760126,1.8753511911547665,0.6240309884146408,0.7332351644399921,5.921041965484619,0.0
67,1,67,-1,1,0.14369742441418398,-0.4579243034744256,1.8753511911547665,0.6240309884146408,0.7332351644399921,2.0342400074005127,0.0
68,1,68,-1,1,1.7067786624712542,-0.2030342566698647,1.8753511911547665,0.6240309884146408,0.7332351644399921,7.890899181365967,0.0
69,1,69,1,1,1.7983597072503499,-0.2228622293056327,1.8753511911547665,0.6240309884146408,0.7332351644399921,2.405257225036621,1.0
70,1,70,-1,1,1.3480115053844441,-0.26153804728247865,1.8753511911547665,0.6240309884146408,0.7332351644399921,5.574067115783691,0.0
71,1,71,1,-1,-0.006806635535329009,-0.5172288446803994,1.8753511911547665,0.5093051299246693,0.7332351644399921,5.583066463470459,0.0
72,1,72,-1,-1,0.15094724335221987,-0.4567420829708147,1.8753511911547665,0.5093051299246693,0.7332351644399921,3.449220657348633,0.0
73,1,73,1,1,1.3831062472965032,-0.290577183120162,1.8753511911547665,0.6240309884146408,0.7332351644399921,1.6312272548675537,1.0
74,1,74,1,1,0.23672184678760566,-0.47751690601322305,1.8753511911547665,0.6240309884146408,0.7332351644399921,6.087029933929443,0.0
75,1,75,1,1,-0.6717538054681613,-0.6256610944829856,1.8753511911547665,0.6240309884146408,0.7332351644399921,1.4572293758392334,0.0
76,1,76,-1,1,-0.9142037383838626,-0.6304351559720027,1.8753511911547665,0.6240309884146408,0.7332351644399921,2.82826566696167,0.0
77,1,77,-1,1,0.6529979649819553,-0.37487318913549983,1.8753511911547665,0.6240309884146408,0.7332351644399921,6.986964702606201,1.0
78,1,78,1,1,-0.10170786425984679,-0.5327042902570288,1.8753511911547665,0.6240309884146408,0.7332351644399921,2.979254722595215,0.0
79,1,79,1,1,0.457094049586772,-0.4415810379864757,1.8753511911547665,0.6240309884146408,0.7332351644399921,7.900898456573486,0.0
80,1,80,-1,1,1.5554040979937667,-0.22771875091448057,1.8753511911547665,0.6240309884146408,0.7332351644399921,1.031234860420227,1.0
81,1,81,1,-1,0.9347162985056621,-0.36369567002366826,1.8753511911547665,0.5093051299246693,0.7332351644399921,4.989109516143799,1.0
82,1,82,-1,1,0.030663224629913,-0.47635667395655207,1.8753511911547665,0.6240309884146408,0.7332351644399921,3.6872034072875977,0.0
83,1,83,1,1,1.965458620679358,-0.19561358168073167,1.8753511911547665,0.6240309884146408,0.7332351644399921,3.6012096405029297,0.0
84,1,84,1,1,2.6240431805426208,-0.0882188761458047,1.8753511911547665,0.6240309884146408,0.7332351644399921,4.173168182373047,1.0
85,1,85,1,1,1.0637299206463262,-0.34265755160396577,1.8753511911547665,0.6240309884146408,0.7332351644399921,5.342083930969238,0.0
86,1,86,-1,1,1.2007297093507667,-0.2855551379943775,1.8753511911547665,0.6240309884146408,0.7332351644399921,1.2072325944900513,1.0
87,1,87,-1,1,1.5537238979851862,-0.22799273939850873,1.8753511911547665,0.6240309884146408,0.7332351644399921,6.247018337249756,1.0
88,1,88,-1,-1,-1.1666739918756637,-0.6716052200495903,1.8753511911547665,0.5093051299246693,0.7332351644399921,4.936113357543945,0.0
89,1,89,-1,1,-1.7800209748140166,-0.7716230805306749,1.8753511911547665,0.6240309884146408,0.7332351644399921,2.593266010284424,0.0
90,1,90,-1,1,2.8559943993469314,-0.01563283067303861,1.8753511911547665,0.6240309884146408,0.7332351644399921,4.614136219024658,1.0
91,1,91,1,1,1.2958417398898763,-0.30480731642078324,1.8753511911547665,0.6240309884146408,0.7332351644399921,11.424925804138184,0.0
92,1,92,-1,-1,-1.61451079087408,-0.7446335053864419,1.8753511911547665,0.5093051299246693,0.7332351644399921,5.136098861694336,0.0
93,1,93,1,-1,-0.3998697158256037,-0.5813252361493852,1.8753511911547665,0.5093051299246693,0.7332351644399921,2.806267261505127,0.0
94,1,94,1,1,1.8616625770279054,-0.2125394955617868,1.8753511911547665,0.6240309884146408,0.7332351644399921,2.601266384124756,0.0
95,1,95,1,-1,-1.3846917205985994,-0.7419191456526257,1.8753511911547665,0.5093051299246693,0.7332351644399921,3.356227397918701,0.0
96,1,96,1,-1,-0.9639624783526701,-0.6733112616622756,1.8753511911547665,0.5093051299246693,0.7332351644399921,2.1962475776672363,0.0
97,1,97,-1,1,0.8637579673103516,-0.3405047727345777,1.8753511911547665,0.6240309884146408,0.7332351644399921,2.7022712230682373,0.0
98,1,98,-1,1,1.2619162027488982,-0.27557751956589294,1.8753511911547665,0.6240309884146408,0.7332351644399921,2.2712509632110596,0.0
99,1,99,1,-1,0.06240973886168999,-0.50594180183186,1.8753511911547665,0.5093051299246693,0.7332351644399921,2.0252394676208496,0.0
100,1,100,1,-1,-1.1854618047390026,-0.7094309285709317,1.8753511911547665,0.5093051299246693,0.7332351644399921,1.6242272853851318,0.0
101,1,101,-1,-1,-1.3611793579961655,-0.7033230096737677,1.8753511911547665,0.5093051299246693,0.7332351644399921,1.8142297267913818,0.0
102,1,102,1,1,0.8454791258110133,-0.3782474838200637,1.8753511911547665,0.6240309884146408,0.7332351644399921,4.788124084472656,0.0
103,1,103,1,-1,-2.53108048437569,-0.9288595800593349,1.8753511911547665,0.5093051299246693,0.7332351644399921,3.740199565887451,0.0
104,1,104,-1,1,2.198430294957999,-0.12286113158530038,1.8753511911547665,0.6240309884146408,0.7332351644399921,7.327939987182617,0.0
105,1,105,1,1,0.14977319083728313,-0.49169553374233543,1.8753511911547665,0.6240309884146408,0.7332351644399921,2.9382576942443848,0.0
106,1,106,-1,-1,-0.5861339591328589,-0.5769371551307968,1.8753511911547665,0.5093051299246693,0.7332351644399921,4.5841383934021,0.0
107,1,107,1,-1,-2.025153384823515,-0.8463585692706421,1.8753511911547665,0.5093051299246693,0.7332351644399921,1.1792329549789429,0.0
108,1,108,-1,-1,-2.256749913108731,-0.8493627772505147,1.8753511911547665,0.5093051299246693,0.7332351644399921,1.314231276512146,0.0
109,1,109,-1,-1,-0.601983675512448,-0.5795217520483915,1.8753511911547665,0.5093051299246693,0.7332351644399921,2.4312584400177,0.0
110,1,110,-1,1,1.7291446341222692,-0.19938706071986856,1.8753511911547665,0.6240309884146408,0.7332351644399921,14.715255737304688,1.0
111,1,111,1,-1,-1.3695517153892813,-0.7394502806042416,1.8753511911547665,0.5093051299246693,0.7332351644399921,1.8022291660308838,0.0
112,1,112,1,1,2.3106031643199234,-0.13933121660530207,1.8753511911547665,0.6240309884146408,0.7332351644399921,6.1480255126953125,0.0
113,1,113,-1,-1,-1.621038826596756,-0.7456980254448895,1.8753511911547665,0.5093051299246693,0.7332351644399921,2.8152666091918945,0.0
114,1,114,1,-1,-0.9641123132794458,-0.6733356950893867,1.8753511911547665,0.5093051299246693,0.7332351644399921,2.135244607925415,1.0
115,1,115,1,-1,-0.1282689425754422,-0.537035577927948,1.8753511911547665,0.5093051299246693,0.7332351644399921,2.401257038116455,1.0
116,1,116,1,-1,-1.5931694638741405,-0.7759153964215648,1.8753511911547665,0.5093051299246693,0.7332351644399921,1.880232810974121,0.0
117,1,117,-1,-1,-1.5857616593298864,-0.7399454141302264,1.8753511911547665,0.5093051299246693,0.7332351644399921,3.959183692932129,0.0
118,1,118,-1,-1,-1.4135016876350757,-0.7118551580521609,1.8753511911547665,0.5093051299246693,0.7332351644399921,3.661205291748047,0.0
119,1,119,-1,-1,0.6810860410741895,-0.37029289551064715,1.8753511911547665,0.5093051299246693,0.7332351644399921,4.589138031005859,0.0
120,1,120,1,1,-1.171205310780321,-0.7071061367917697,1.8753511911547665,0.6240309884146408,0.7332351644399921,1.9552361965179443,0.0
121,1,121,1,1,1.3580031065123306,-0.29467072642017167,1.8753511911547665,0.6240309884146408,0.7332351644399921,2.7702698707580566,0.0
122,1,122,1,1,-0.18782893622012042,-0.5467479647176723,1.8753511911547665,0.6240309884146408,0.7332351644399921,2.3172531127929688,0.0
123,1,123,1,1,2.4282792577856966,-0.1201418973037971,1.8753511911547665,0.6240309884146408,0.7332351644399921,4.634134769439697,1.0
124,1,124,1,-1,-0.9812190612261047,-0.6761252748493087,1.8753511911547665,0.5093051299246693,0.7332351644399921,2.5442638397216797,0.0
125,1,125,1,1,2.0500326030168,-0.18182218953067658,1.8753511911547665,0.6240309884146408,0.7332351644399921,5.165096759796143,1.0
126,1,126,1,1,1.0078298979458893,-0.35177311070324924,1.8753511911547665,0.6240309884146408,0.7332351644399921,2.7142717838287354,0.0
127,1,127,-1,1,1.6835829750391718,-0.20681675351729445,1.8753511911547665,0.6240309884146408,0.7332351644399921,3.291232109069824,0.0
128,1,128,-1,-1,-0.7192301497612961,-0.5986410137868959,1.8753511911547665,0.5093051299246693,0.7332351644399921,2.628267765045166,0.0
129,1,129,1,-1,-0.809972880263514,-0.6482003365812803,1.8753511911547665,0.5093051299246693,0.7332351644399921,5.290087699890137,0.0
130,1,130,1,-1,-0.9218389733537424,-0.6664422251084912,1.8753511911547665,0.5093051299246693,0.7332351644399921,4.946112632751465,0.0
131,1,131,1,-1,-0.6982375373126881,-0.6299797693445698,1.8753511911547665,0.5093051299246693,0.7332351644399921,2.613266944885254,0.0
132,1,132,-1,-1,-0.0490973990629594,-0.48936315667238833,1.8753511911547665,0.5093051299246693,0.7332351644399921,5.288087844848633,0.0
133,1,133,-1,-1,-1.5110335299935522,-0.7277595750833501,1.8753511911547665,0.5093051299246693,0.7332351644399921,1.1622332334518433,0.0
134,1,134,-1,1,0.44761577787450924,-0.40836465074994,1.8753511911547665,0.6240309884146408,0.7332351644399921,4.183167457580566,0.0
135,1,135,1,1,1.4386565397990494,-0.2815186541638673,1.8753511911547665,0.6240309884146408,0.7332351644399921,1.479229211807251,0.0
136,1,136,-1,-1,-1.095320503984445,-0.6599696803057518,1.8753511911547665,0.5093051299246693,0.7332351644399921,1.472229242324829,0.0
137,1,137,-1,1,0.5600322917434597,-0.39003300567352706,1.8753511911547665,0.6240309884146408,0.7332351644399921,2.2602505683898926,1.0
138,1,138,1,-1,-1.5130865711038226,-0.7628563616193534,1.8753511911547665,0.5093051299246693,0.7332351644399921,3.705202102661133,1.0
139,1,139,-1,1,0.939398579915004,-0.32817013598141004,1.8753511911547665,0.6240309884146408,0.7332351644399921,2.9842543601989746,0.0
140,1,140,-1,-1,-2.207761456047731,-0.8413742800379945,1.8753511911547665,0.5093051299246693,0.7332351644399921,1.7532267570495605,0.0
141,1,141,-1,1,2.1891206618785426,-0.12437924385840621,1.8753511911547665,0.6240309884146408,0.7332351644399921,5.671060085296631,1.0
142,1,142,-1,1,2.8590963686174256,-0.015126995740539939,1.8753511911547665,0.6240309884146408,0.7332351644399921,2.109243392944336,1.0
143,1,143,-1,1,0.8817927543608545,-0.3375638585942947,1.8753511911547665,0.6240309884146408,0.7332351644399921,2.9882540702819824,1.0
144,1,144,1,-1,-1.9440629083388963,-0.8331352288304097,1.8753511911547665,0.5093051299246693,0.7332351644399921,1.709226131439209,0.0
145,1,145,-1,-1,-2.215584612428646,-0.8426499940876171,1.8753511911547665,0.5093051299246693,0.7332351644399921,1.3042314052581787,0.0
146,1,146,1,-1,-1.91790660364663,-0.8288699471771456,1.8753511911547665,0.5093051299246693,0.7332351644399921,1.3612306118011475,0.0
147,1,147,-1,1,1.2898683820611427,-0.27101938648891766,1.8753511911547665,0.6240309884146408,0.7332351644399921,8.119882583618164,1.0
148,1,148,1,1,0.6612832585303156,-0.4082841140919124,1.8753511911547665,0.6240309884146408,0.7332351644399921,3.9901814460754395,0.0
149,1,149,1,-1,-0.5269009198033319,-0.6020400836820511,1.8753511911547665,0.5093051299246693,0.7332351644399921,5.031106472015381,0.0
150,1,150,1,1,0.41543322366328406,-0.4483746259401984,1.8753511911547665,0.6240309884146408,0.7332351644399921,2.5402636528015137,0.0
151,1,151,1,1,0.6078529217779477,-0.41699694404854526,1.8753511911547665,0.6240309884146408,0.7332351644399921,2.2542502880096436,0.0
152,1,152,1,-1,0.1774579489926038,-0.48718100875785414,1.8753511911547665,0.5093051299246693,0.7332351644399921,1.21823251247406,1.0
153,1,153,-1,1,1.4760436026104764,-0.2406599851191876,1.8753511911547665,0.6240309884146408,0.7332351644399921,4.8461198806762695,0.0
154,1,154,-1,1,1.6946270384088669,-0.20501580948401232,1.8753511911547665,0.6240309884146408,0.7332351644399921,4.383152961730957,0.0
155,1,155,1,-1,-2.179657607472952,-0.8715534136483848,1.8753511911547665,0.5093051299246693,0.7332351644399921,5.705057621002197,0.0
156,1,156,-1,-1,-2.280628987999384,-0.8532567133866134,1.8753511911547665,0.5093051299246693,0.7332351644399921,2.2332491874694824,0.0
157,1,157,-1,1,1.0176963091205768,-0.3154022059621703,1.8753511911547665,0.6240309884146408,0.7332351644399921,1.868232250213623,0.0
158,1,158,-1,1,0.8329118790450573,-0.34553481256248286,1.8753511911547665,0.6240309884146408,0.7332351644399921,3.5852108001708984,0.0
159,1,159,-1,1,-0.15265310924428666,-0.5062498796221231,1.8753511911547665,0.6240309884146408,0.7332351644399921,4.903115749359131,0.0
160,1,160,1,1,0.5530238623447568,-0.4259378622714188,1.8753511911547665,0.6240309884146408,0.7332351644399921,1.7752277851104736,1.0
161,1,161,-1,-1,-2.462835279274333,-0.8829689055493738,1.8753511911547665,0.5093051299246693,0.7332351644399921,2.7142717838287354,0.0
162,1,162,1,-1,-0.5989699161954272,-0.613792300659828,1.8753511911547665,0.5093051299246693,0.7332351644399921,1.2332322597503662,0.0
163,1,163,-1,1,1.26954425781881,-0.2743336204860125,1.8753511911547665,0.6240309884146408,0.7332351644399921,1.5622280836105347,1.0
164,1,164,-1,1,0.10973389895890628,-0.4634627005725216,1.8753511911547665,0.6240309884146408,0.7332351644399921,3.321229934692383,1.0
165,1,165,-1,-1,0.7110229148268981,-0.3654111203564043,1.8753511911547665,0.5093051299246693,0.7332351644399921,2.663269281387329,0.0
166,1,166,1,-1,-0.38186315910660884,-0.5783889255001712,1.8753511911547665,0.5093051299246693,0.7332351644399921,3.9671831130981445,0.0
167,1,167,1,-1,-1.5169659256296022,-0.7634889639643707,1.8753511911547665,0.5093051299246693,0.7332351644399921,1.845231056213379,1.0
168,1,168,1,-1,-1.847818347127223,-0.8174407274093439,1.8753511911547665,0.5093051299246693,0.7332351644399921,2.0382401943206787,0.0
169,1,169,-1,-1,-0.7300041950238026,-0.6003979262456804,1.8753511911547665,0.5093051299246693,0.7332351644399921,5.830048561096191,0.0
170,1,170,1,-1,-2.0713058481980045,-0.8538846039150678,1.8753511911547665,0.5093051299246693,0.7332351644399921,2.4412589073181152,0.0
171,1,171,-1,-1,-1.7862986824687612,-0.7726467798490367,1.8753511911547665,0.5093051299246693,0.7332351644399921,1.5382283926010132,0.0
172,1,172,1,1,1.9221678356337928,-0.20267296538889146,1.8753511911547665,0.6240309884146408,0.7332351644399921,2.0432403087615967,0.0
173,1,173,1,-1,0.2879350755296326,-0.46916561757520564,1.8753511911547665,0.5093051299246693,0.7332351644399921,2.2782514095306396,0.0
174,1,174,1,-1,0.5527102908591763,-0.42598899605045093,1.8753511911547665,0.5093051299246693,0.7332351644399921,11.46494197845459,1.0
175,1,175,-1,1,0.5553076210886965,-0.39080345284863716,1.8753511911547665,0.6240309884146408,0.7332351644399921,1.3422309160232544,1.0
176,1,176,-1,1,2.1902955996149007,-0.12418764797245913,1.8753511911547665,0.6240309884146408,0.7332351644399921,5.682059288024902,0.0
177,1,177,1,1,0.8420117843629332,-0.3788128996170616,1.8753511911547665,0.6240309884146408,0.7332351644399921,2.376255989074707,1.0
178,1,178,1,1,1.4250478972965228,-0.283737801473656,1.8753511911547665,0.6240309884146408,0.7332351644399921,8.417860984802246,0.0
179,1,179,-1,-1,-1.3351607200962996,-0.699080177202481,1.8753511911547665,0.5093051299246693,0.7332351644399921,2.5622646808624268,0.0
180,1,180,1,1,0.04429146774682968,-0.5088963296324911,1.8753511911547665,0.6240309884146408,0.7332351644399921,5.211093425750732,0.0
181,1,181,1,-1,-0.9343076757409436,-0.6684754835583311,1.8753511911547665,0.5093051299246693,0.7332351644399921,1.435229778289795,1.0
182,1,182,1,1,0.022743716593685015,-0.5124100992090392,1.8753511911547665,0.6240309884146408,0.7332351644399921,1.690226435661316,0.0
183,1,183,1,-1,-1.2358992548850727,-0.7176557115927116,1.8753511911547665,0.5093051299246693,0.7332351644399921,2.387256383895874,0.0
184,1,184,1,1,1.3403631612972382,-0.29754725410922106,1.8753511911547665,0.6240309884146408,0.7332351644399921,1.3982301950454712,0.0
185,1,185,1,1,3.0895879530126984,-0.012302969822205023,1.8753511911547665,0.6240309884146408,0.7332351644399921,6.848974704742432,1.0
186,1,186,-1,-1,-0.2767174321548238,-0.5264809209164005,1.8753511911547665,0.5093051299246693,0.7332351644399921,2.7702698707580566,0.0
187,1,187,1,1,-0.1489008654489523,-0.5404000043306563,1.8753511911547665,0.6240309884146408,0.7332351644399921,2.0452404022216797,0.0
188,1,188,-1,1,-0.03602044624673306,-0.48723071145186214,1.8753511911547665,0.6240309884146408,0.7332351644399921,2.070241689682007,0.0
189,1,189,-1,-1,-1.811170917402037,-0.7767026695698787,1.8753511911547665,0.5093051299246693,0.7332351644399921,2.8362650871276855,0.0
190,1,190,1,-1,-0.05325800136813541,-0.5248036210406972,1.8753511911547665,0.5093051299246693,0.7332351644399921,8.004890441894531,0.0
191,1,191,-1,-1,-0.44606096815648777,-0.5540955968312412,1.8753511911547665,0.5093051299246693,0.7332351644399921,2.0542409420013428,0.0
192,1,192,-1,1,2.3303194153355467,-0.10135410863118177,1.8753511911547665,0.6240309884146408,0.7332351644399921,14.298087120056152,0.0
193,1,193,1,-1,-1.2884853337999986,-0.7262308692937628,1.8753511911547665,0.5093051299246693,0.7332351644399921,5.630063056945801,0.0
194,1,194,-1,-1,-2.868170521436681,-0.9490665058089238,1.8753511911547665,0.5093051299246693,0.7332351644399921,1.5072288513183594,0.0
195,1,195,-1,1,0.4936048823760102,-0.4008652548685985,1.8753511911547665,0.6240309884146408,0.7332351644399921,4.18516731262207,0.0
196,1,196,-1,1,0.33005042503400683,-0.42753591169179533,1.8753511911547665,0.6240309884146408,0.7332351644399921,5.3800811767578125,0.0
197,1,197,1,1,1.1697913544136225,-0.3253622228911034,1.8753511911547665,0.6240309884146408,0.7332351644399921,1.6442270278930664,0.0
198,1,198,-1,1,0.9559092622272808,-0.32547775603026774,1.8753511911547665,0.6240309884146408,0.7332351644399921,1.6942263841629028,0.0
199,1,199,-1,-1,-2.1421981521590183,-0.8306829396329186,1.8753511911547665,0.5093051299246693,0.7332351644399921,2.0042386054992676,0.0
200,1,200,-1,1,1.4014696252438417,-0.2528206867632117,1.8753511911547665,0.6240309884146408,0.7332351644399921,0.9782354831695557,1.0
201,1,201,1,-1,-0.35156076794158797,-0.573447545798152,1.8753511911547665,0.5093051299246693,0.7332351644399921,1.5122287273406982,0.0
202,1,202,-1,-1,-1.4418414441244234,-0.7164764929400256,1.8753511911547665,0.5093051299246693,0.7332351644399921,5.707057476043701,1.0
203,1,203,-1,1,1.008984379222817,-0.3168228513933433,1.8753511911547665,0.6240309884146408,0.7332351644399921,3.214237689971924,1.0
204,1,204,1,-1,-2.2662989194574426,-0.8856819231136932,1.8753511911547665,0.5093051299246693,0.7332351644399921,3.1572418212890625,0.0
205,1,205,-1,1,-0.4043191326122135,-0.5472887987221337,1.8753511911547665,0.6240309884146408,0.7332351644399921,2.0142390727996826,0.0
206,1,206,-1,-1,1.00369109739394,-0.3176860214066878,1.8753511911547665,0.5093051299246693,0.7332351644399921,2.809267044067383,0.0
207,1,207,1,-1,-2.5540934053245077,-0.9326122733646713,1.8753511911547665,0.5093051299246693,0.7332351644399921,2.602266550064087,0.0
208,1,208,-1,1,2.573851828315558,-0.06164152899580633,1.8753511911547665,0.6240309884146408,0.7332351644399921,0.987235426902771,1.0
209,1,209,1,1,0.27293151665758797,-0.47161223245997264,1.8753511911547665,0.6240309884146408,0.7332351644399921,3.6492061614990234,0.0
210,1,210,-1,-1,-2.784720301839704,-0.9354583644909691,1.8753511911547665,0.5093051299246693,0.7332351644399921,1.6252272129058838,0.0
211,1,211,1,-1,-2.982559933923632,-1.0024818686677088,1.8753511911547665,0.5093051299246693,0.7332351644399921,2.8782620429992676,0.0
212,1,212,1,1,0.5796823735703274,-0.42159068631627017,1.8753511911547665,0.6240309884146408,0.7332351644399921,1.9212346076965332,0.0
213,1,213,-1,1,-0.3266194877870181,-0.5346183977065029,1.8753511911547665,0.6240309884146408,0.7332351644399921,4.15416955947876,0.0
214,1,214,1,1,0.44092712568802717,-0.444217361607351,1.8753511911547665,0.6240309884146408,0.7332351644399921,2.977254867553711,0.0
215,1,215,1,1,0.7004026484700481,-0.40190495548522437,1.8753511911547665,0.6240309884146408,0.7332351644399921,1.2942315340042114,1.0
216,1,216,-1,1,1.0415846778309454,-0.31150675429246755,1.8753511911547665,0.6240309884146408,0.7332351644399921,4.006180286407471,0.0
217,1,217,1,-1,-0.3860858605382754,-0.5790775170713278,1.8753511911547665,0.5093051299246693,0.7332351644399921,1.3462308645248413,0.0
218,1,218,1,1,2.7987884286260916,-0.059723348608006765,1.8753511911547665,0.6240309884146408,0.7332351644399921,1.3512308597564697,1.0
219,1,219,1,-1,-1.2741459118159484,-0.7238925545269577,1.8753511911547665,0.5093051299246693,0.7332351644399921,2.0512406826019287,0.0
220,1,220,1,1,1.942713111516286,-0.19932266842172253,1.8753511911547665,0.6240309884146408,0.7332351644399921,1.8332304954528809,0.0
221,1,221,-1,-1,-0.7985247968361456,-0.6115715101757994,1.8753511911547665,0.5093051299246693,0.7332351644399921,3.000253200531006,0.0
222,1,222,-1,1,1.8017622633420407,-0.18754537875222405,1.8753511911547665,0.6240309884146408,0.7332351644399921,5.5070719718933105,0.0
223,1,223,-1,-1,0.49843494900907315,-0.40007762087991283,1.8753511911547665,0.5093051299246693,0.7332351644399921,5.767053127288818,0.0
224,1,224,-1,1,2.2879812312930423,-0.10825815267538519,1.8753511911547665,0.6240309884146408,0.7332351644399921,10.496550559997559,0.0
225,1,225,1,-1,1.2491004583336047,-0.31242936903936136,1.8753511911547665,0.5093051299246693,0.7332351644399921,1.7922286987304688,0.0
226,1,226,-1,1,2.869150084791078,-0.013487546604007916,1.8753511911547665,0.6240309884146408,0.7332351644399921,9.488142967224121,1.0
227,1,227,1,1,-1.0392496692666624,-0.6855882663045326,1.8753511911547665,0.6240309884146408,0.7332351644399921,2.7012710571289062,0.0
228,1,228,-1,1,0.3939844786454567,-0.417110251450563,1.8753511911547665,0.6240309884146408,0.7332351644399921,6.770980358123779,0.0
229,1,229,-1,1,0.8954090705027933,-0.3353434599520344,1.8753511911547665,0.6240309884146408,0.7332351644399921,3.315230369567871,1.0
230,1,230,-1,1,0.5474782047015023,-0.39208018771103303,1.8753511911547665,0.6240309884146408,0.7332351644399921,3.3652267456054688,0.0
231,1,231,1,1,1.9780494058580778,-0.19356041531587964,1.8753511911547665,0.6240309884146408,0.7332351644399921,2.8352651596069336,0.0
232,1,232,-1,-1,-0.5621443958362929,-0.5730252017641994,1.8753511911547665,0.5093051299246693,0.7332351644399921,3.7761969566345215,0.0
233,1,233,1,-1,-1.0017896208206283,-0.6794796948053448,1.8753511911547665,0.5093051299246693,0.7332351644399921,1.4442296028137207,0.0
234,1,234,1,1,-0.11482050741109684,-0.53484255546371,1.8753511911547665,0.6240309884146408,0.7332351644399921,1.030234932899475,1.0
235,1,235,1,1,-0.9407575634479264,-0.6695272601003875,1.8753511911547665,0.6240309884146408,0.7332351644399921,3.0672483444213867,0.0
236,1,236,-1,1,1.4613481999678604,-0.2430563492851629,1.8753511911547665,0.6240309884146408,0.7332351644399921,4.757126331329346,0.0
237,1,237,1,1,-0.6878130553151784,-0.6282798598071989,1.8753511911547665,0.6240309884146408,0.7332351644399921,4.209165573120117,0.0
238,1,238,-1,1,1.5900917195515016,-0.22206227621110552,1.8753511911547665,0.6240309884146408,0.7332351644399921,2.0192391872406006,0.0
239,1,239,1,1,1.6744346614156977,-0.24307055883066447,1.8753511911547665,0.6240309884146408,0.7332351644399921,2.95125675201416,0.0
240,1,240,-1,-1,-3.1015869261625255,-0.9871294784023871,1.8753511911547665,0.5093051299246693,0.7332351644399921,1.5262285470962524,0.0
241,1,241,-1,1,1.2240254174674907,-0.2817563308769701,1.8753511911547665,0.6240309884146408,0.7332351644399921,1.6772265434265137,1.0
242,1,242,1,1,0.810435538305932,-0.3839620055236655,1.8753511911547665,0.6240309884146408,0.7332351644399921,4.848119735717773,0.0
243,1,243,-1,-1,-1.7172021582053567,-0.7613792808382855,1.8753511911547665,0.5093051299246693,0.7332351644399921,2.140244960784912,0.0
244,1,244,1,1,3.1499725282418423,-0.0024561193631964517,1.8753511911547665,0.6240309884146408,0.7332351644399921,5.408079147338867,0.0
245,1,245,-1,1,1.548849878926541,-0.22878754066394302,1.8753511911547665,0.6240309884146408,0.7332351644399921,2.5552642345428467,1.0
246,1,246,1,1,0.4302899106278997,-0.44595196130603093,1.8753511911547665,0.6240309884146408,0.7332351644399921,1.4562294483184814,0.0
247,1,247,-1,-1,0.5790096798715814,-0.3869383825468251,1.8753511911547665,0.5093051299246693,0.7332351644399921,1.840230941772461,0.0
248,1,248,1,1,-0.03353758348349056,-0.5215878328172581,1.8753511911547665,0.6240309884146408,0.7332351644399921,3.7322001457214355,0.0
249,1,249,1,1,2.3464651545549238,-0.13348323881185986,1.8753511911547665,0.6240309884146408,0.7332351644399921,5.630063056945801,1.0
250,1,250,-1,1,1.1203584439554763,-0.29866119742338804,1.8753511911547665,0.6240309884146408,0.7332351644399921,3.3322291374206543,0.0
251,1,251,-1,1,1.8269484553844095,-0.18343829236912101,1.8753511911547665,0.6240309884146408,0.7332351644399921,2.1822469234466553,1.0
252,1,252,1,-1,-2.097715416090822,-0.8581911849374693,1.8753511911547665,0.5093051299246693,0.7332351644399921,3.6302075386047363,0.0
253,1,253,1,-1,-0.26858797604142626,-0.559917258122749,1.8753511911547665,0.5093051299246693,0.7332351644399921,8.380863189697266,0.0
254,1,254,1,-1,-1.616085506998298,-0.7796522919598623,1.8753511911547665,0.5093051299246693,0.7332351644399921,4.71212911605835,0.0
255,1,255,-1,1,1.7469676596799055,-0.19648067830801663,1.8753511911547665,0.6240309884146408,0.7332351644399921,3.1742405891418457,0.0
256,1,256,1,1,1.4512353143897252,-0.2794674463532312,1.8753511911547665,0.6240309884146408,0.7332351644399921,3.170240879058838,0.0
257,1,257,1,-1,-1.0644637382387048,-0.6896998985498316,1.8753511911547665,0.5093051299246693,0.7332351644399921,6.854974269866943,0.0
258,1,258,1,-1,-1.550590755145587,-0.7689721302646574,1.8753511911547665,0.5093051299246693,0.7332351644399921,1.7822282314300537,0.0
259,1,259,1,-1,-1.0352929264839574,-0.6849430443362037,1.8753511911547665,0.5093051299246693,0.7332351644399921,9.105988502502441,0.0
260,1,260,1,-1,0.12068368325806733,-0.4964391297678398,1.8753511911547665,0.5093051299246693,0.7332351644399921,7.775907516479492,0.0
261,1,261,1,1,0.30176753739043083,-0.46690997227329945,1.8753511911547665,0.6240309884146408,0.7332351644399921,2.2342493534088135,0.0
262,1,262,1,1,1.941255228354267,-0.19956040392666946,1.8753511911547665,0.6240309884146408,0.7332351644399921,4.4371490478515625,0.0
263,1,263,1,1,-0.6752142169684165,-0.6262253802205328,1.8753511911547665,0.6240309884146408,0.7332351644399921,1.6352272033691406,1.0
264,1,264,-1,-1,-1.757736716623391,-0.7679892095104623,1.8753511911547665,0.5093051299246693,0.7332351644399921,3.129243850708008,0.0
265,1,265,-1,-1,-0.9669426864295358,-0.6390352418846801,1.8753511911547665,0.5093051299246693,0.7332351644399921,1.841230869293213,0.0
266,1,266,-1,1,0.6056571740510951,-0.3825930031300244,1.8753511911547665,0.6240309884146408,0.7332351644399921,4.6921305656433105,1.0
267,1,267,1,1,1.6876298875860478,-0.24091882689615668,1.8753511911547665,0.6240309884146408,0.7332351644399921,13.818893432617188,0.0
268,1,268,-1,1,1.258816655685854,-0.27608295951151873,1.8753511911547665,0.6240309884146408,0.7332351644399921,4.647133827209473,0.0
269,1,269,1,-1,-0.9637047447169033,-0.6732692333038741,1.8753511911547665,0.5093051299246693,0.7332351644399921,2.369255542755127,0.0
270,1,270,1,-1,-3.2152524306823365,-1.0404267943349255,1.8753511911547665,0.5093051299246693,0.7332351644399921,2.2652506828308105,0.0
271,1,271,1,1,1.0934499539645746,-0.33781113639592597,1.8753511911547665,0.6240309884146408,0.7332351644399921,2.929258346557617,1.0
272,1,272,1,1,2.219689449247439,-0.1541564224396491,1.8753511911547665,0.6240309884146408,0.7332351644399921,3.0732479095458984,1.0
273,1,273,-1,-1,-1.2945511241779897,-0.6924580122424571,1.8753511911547665,0.5093051299246693,0.7332351644399921,3.764197826385498,0.0
274,1,274,1,-1,-1.0510263914460192,-0.687508684254934,1.8753511911547665,0.5093051299246693,0.7332351644399921,6.044033050537109,0.0
275,1,275,1,-1,-1.112461629564618,-0.6975268652286649,1.8753511911547665,0.5093051299246693,0.7332351644399921,2.159245729446411,0.0
276,1,276,-1,-1,-1.4558274148511312,-0.7187571707745115,1.8753511911547665,0.5093051299246693,0.7332351644399921,7.796905994415283,0.0
277,1,277,-1,-1,0.13687071131644002,-0.45903752854465174,1.8753511911547665,0.5093051299246693,0.7332351644399921,2.971255302429199,0.0
278,1,278,1,1,1.7771092551512055,-0.2263275186317984,1.8753511911547665,0.6240309884146408,0.7332351644399921,2.5452637672424316,1.0
279,1,279,1,1,1.6069384700128655,-0.2540770932109136,1.8753511911547665,0.6240309884146408,0.7332351644399921,3.4572200775146484,0.0
280,1,280,1,1,0.796353046225903,-0.3862584229957767,1.8753511911547665,0.6240309884146408,0.7332351644399921,2.1852469444274902,0.0
281,1,281,1,1,1.1764885605144524,-0.3242701163934128,1.8753511911547665,0.6240309884146408,0.7332351644399921,2.384256362915039,1.0
282,1,282,1,-1,0.09601250197196376,-0.5004622338776142,1.8753511911547665,0.5093051299246693,0.7332351644399921,2.095242738723755,0.0
283,1,283,1,1,0.8013217287113421,-0.3854481850628815,1.8753511911547665,0.6240309884146408,0.7332351644399921,3.552213191986084,0.0
284,1,284,1,-1,0.0529963974004406,-0.507476825723918,1.8753511911547665,0.5093051299246693,0.7332351644399921,2.909259796142578,0.0
285,1,285,-1,1,0.9522699832612238,-0.3260712095011482,1.8753511911547665,0.6240309884146408,0.7332351644399921,3.2382359504699707,0.0
286,1,286,-1,1,2.167132960226992,-0.12796475570937998,1.8753511911547665,0.6240309884146408,0.7332351644399921,1.7882285118103027,1.0
287,1,287,-1,1,2.524599048675194,-0.06967312901897077,1.8753511911547665,0.6240309884146408,0.7332351644399921,2.5032618045806885,1.0
288,1,288,-1,-1,-1.6188183964473124,-0.7453359421884738,1.8753511911547665,0.5093051299246693,0.7332351644399921,1.7442264556884766,0.0
289,1,289,1,-1,-0.16946073802940587,-0.5437526815663204,1.8753511911547665,0.5093051299246693,0.7332351644399921,2.3182532787323,0.0
290,1,290,1,1,1.1572998959924128,-0.32739919214396,1.8753511911547665,0.6240309884146408,0.7332351644399921,4.000180721282959,0.0
291,1,291,1,1,1.4984439347203102,-0.27176918528229754,1.8753511911547665,0.6240309884146408,0.7332351644399921,7.988892078399658,0.0
292,1,292,1,-1,-2.0467841274548357,-0.8498858721820173,1.8753511911547665,0.5093051299246693,0.7332351644399921,5.279088497161865,0.0
293,1,293,-1,1,1.1514814140979825,-0.29358600675308033,1.8753511911547665,0.6240309884146408,0.7332351644399921,3.2162375450134277,1.0
294,1,294,-1,1,0.24133865073650485,-0.4420020493129676,1.8753511911547665,0.6240309884146408,0.7332351644399921,1.5152287483215332,1.0
295,1,295,1,-1,-2.3335085515432965,-0.8966417285614092,1.8753511911547665,0.5093051299246693,0.7332351644399921,2.3032524585723877,0.0
296,1,296,1,1,0.42658408284343086,-0.4465562668241543,1.8753511911547665,0.6240309884146408,0.7332351644399921,9.329078674316406,0.0
297,1,297,1,1,1.3498233453530242,-0.2960045916435412,1.8753511911547665,0.6240309884146408,0.7332351644399921,2.08524227142334,1.0
298,1,298,-1,-1,-1.2451146466287921,-0.6843964567905916,1.8753511911547665,0.5093051299246693,0.7332351644399921,2.8122668266296387,0.0
299,1,299,-1,1,2.654795598571649,-0.04844211178908564,1.8753511911547665,0.6240309884146408,0.7332351644399921,1.686226487159729,0.0
300,1,300,-1,1,3.0050445771946763,0.008672628239041746,1.8753511911547665,0.6240309884146408,0.7332351644399921,1.4612293243408203,1.0
301,1,301,-1,-1,-0.0813312804823294,-0.49461950249986986,1.8753511911547665,0.5093051299246693,0.7332351644399921,4.023179054260254,0.0
302,1,302,-1,-1,-1.8327590271953724,-0.7802230203882949,1.8753511911547665,0.5093051299246693,0.7332351644399921,4.083174705505371,0.0
303,1,303,-1,1,0.5739185306758133,-0.3877685909999772,1.8753511911547665,0.6240309884146408,0.7332351644399921,9.919317245483398,0.0
304,1,304,1,-1,-0.5273881409190109,-0.6021195343273253,1.8753511911547665,0.5093051299246693,0.7332351644399921,4.047177314758301,0.0
305,1,305,-1,1,-0.5118940945416832,-0.5648309369127785,1.8753511911547665,0.6240309884146408,0.7332351644399921,0.987235426902771,1.0
306,1,306,1,1,1.8902783546769553,-0.20787315018783709,1.8753511911547665,0.6240309884146408,0.7332351644399921,1.4742292165756226,0.0
307,1,307,1,1,1.1945218528082249,-0.32132944600156965,1.8753511911547665,0.6240309884146408,0.7332351644399921,7.13495397567749,0.0
308,1,308,1,1,-0.6226696162939664,-0.6176569863334144,1.8753511911547665,0.6240309884146408,0.7332351644399921,2.8212661743164062,0.0
309,1,309,1,1,3.0937270525523437,-0.011628011125432325,1.8753511911547665,0.6240309884146408,0.7332351644399921,2.7262723445892334,0.0
310,1,310,1,1,0.5983081097732523,-0.4185534067066485,1.8753511911547665,0.6240309884146408,0.7332351644399921,4.659132957458496,0.0
311,1,311,1,-1,-0.6298992033683312,-0.6188359076478644,1.8753511911547665,0.5093051299246693,0.7332351644399921,4.126171588897705,0.0
312,1,312,-1,-1,-3.213228711145731,-1.0053347892377251,1.8753511911547665,0.5093051299246693,0.7332351644399921,1.2792317867279053,0.0
313,1,313,-1,-1,-1.048483618065035,-0.6523320375821927,1.8753511911547665,0.5093051299246693,0.7332351644399921,3.040250301361084,0.0
314,1,314,1,-1,-3.0385860127193927,-1.0116179836045616,1.8753511911547665,0.5093051299246693,0.7332351644399921,1.5952277183532715,0.0
315,1,315,1,-1,-1.5563276141319893,-0.769907633947993,1.8753511911547665,0.5093051299246693,0.7332351644399921,9.896307945251465,0.0
316,1,316,-1,1,1.633693055541659,-0.21495225128042,1.8753511911547665,0.6240309884146408,0.7332351644399921,4.905115604400635,1.0
317,1,317,-1,-1,-1.2587613526800907,-0.6866218110840557,1.8753511911547665,0.5093051299246693,0.7332351644399921,1.475229263305664,1.0
318,1,318,1,-1,-1.216389119608581,-0.7144742139374971,1.8753511911547665,0.5093051299246693,0.7332351644399921,3.2372360229492188,0.0
319,1,319,-1,1,-0.12127376441594873,-0.5011328821959794,1.8753511911547665,0.6240309884146408,0.7332351644399921,2.7342724800109863,0.0
320,1,320,1,1,0.5320152730228138,-0.42936371128373496,1.8753511911547665,0.6240309884146408,0.7332351644399921,1.855231523513794,1.0
321,1,321,1,1,0.4529526534296251,-0.44225637119029787,1.8753511911547665,0.6240309884146408,0.7332351644399921,1.8982336521148682,1.0
322,1,322,1,-1,-1.5463487470454116,-0.7682803903749617,1.8753511911547665,0.5093051299246693,0.7332351644399921,1.3242311477661133,0.0
323,1,323,1,1,1.6619113977158106,-0.24511271453754113,1.8753511911547665,0.6240309884146408,0.7332351644399921,8.471857070922852,0.0
324,1,324,1,1,0.7600036850897505,-0.39218587585985587,1.8753511911547665,0.6240309884146408,0.7332351644399921,5.461075305938721,0.0
325,1,325,1,-1,-1.448387260785549,-0.7523059117555023,1.8753511911547665,0.5093051299246693,0.7332351644399921,4.136170864105225,0.0
326,1,326,-1,-1,-1.8370159925424714,-0.7809171993408337,1.8753511911547665,0.5093051299246693,0.7332351644399921,2.7052712440490723,0.0
327,1,327,1,-1,-1.5880852159819323,-0.7750863133568728,1.8753511911547665,0.5093051299246693,0.7332351644399921,2.805267333984375,0.0
328,1,328,-1,-1,-0.5229871478492721,-0.5666398696847511,1.8753511911547665,0.5093051299246693,0.7332351644399921,8.83988094329834,0.0
329,1,329,1,-1,-1.6827027425494898,-0.7905154959151092,1.8753511911547665,0.5093051299246693,0.7332351644399921,3.128243923187256,0.0
330,1,330,1,-1,-0.49149422609733207,-0.5962663506244302,1.8753511911547665,0.5093051299246693,0.7332351644399921,1.7752277851104736,0.0
331,1,331,-1,-1,-1.9772906124666372,-0.8037916370651366,1.8753511911547665,0.5093051299246693,0.7332351644399921,1.6852264404296875,0.0
332,1,332,1,-1,-1.0432765805818789,-0.6862449305831527,1.8753511911547665,0.5093051299246693,0.7332351644399921,5.181095600128174,0.0
333,1,333,1,1,2.470630179476879,-0.11323577614434932,1.8753511911547665,0.6240309884146408,0.7332351644399921,2.82826566696167,0.0
334,1,334,-1,1,0.6235250669369811,-0.3796793042491886,1.8753511911547665,0.6240309884146408,0.7332351644399921,1.849231243133545,0.0
335,1,335,-1,-1,-1.9790700528192806,-0.8040818085698083,1.8753511911547665,0.5093051299246693,0.7332351644399921,1.9382355213165283,0.0
336,1,336,1,-1,-0.7819353632736634,-0.6436282875771544,1.8753511911547665,0.5093051299246693,0.7332351644399921,4.596137523651123,0.0
337,1,337,1,-1,-0.14166943717854574,-0.5392207827742649,1.8753511911547665,0.5093051299246693,0.7332351644399921,2.865262985229492,0.0
338,1,338,1,1,1.1471603807332382,-0.329052632448956,1.8753511911547665,0.6240309884146408,0.7332351644399921,5.846047401428223,0.0
339,1,339,1,-1,-2.1320786103719938,-0.8637947556191631,1.8753511911547665,0.5093051299246693,0.7332351644399921,1.3652305603027344,0.0
340,1,340,1,1,3.5065716961477396,0.05569413948770219,1.8753511911547665,0.6240309884146408,0.7332351644399921,2.911259651184082,1.0
341,1,341,1,1,-0.903842074288236,-0.6635074893228796,1.8753511911547665,0.6240309884146408,0.7332351644399921,1.7182260751724243,0.0
342,1,342,-1,1,-0.979533682547264,-0.6410884426471388,1.8753511911547665,0.6240309884146408,0.7332351644399921,3.6072092056274414,0.0
343,1,343,-1,-1,-1.6130007782846314,-0.7443872691894811,1.8753511911547665,0.5093051299246693,0.7332351644399921,1.4782291650772095,0.0
344,1,344,1,-1,-0.5410582899649061,-0.6043487114457614,1.8753511911547665,0.5093051299246693,0.7332351644399921,3.1182446479797363,0.0
345,1,345,-1,-1,-1.1030024901056272,-0.6612223738665893,1.8753511911547665,0.5093051299246693,0.7332351644399921,6.528997898101807,0.0
346,1,346,-1,-1,0.08561504365784378,-0.4673957374530627,1.8753511911547665,0.5093051299246693,0.7332351644399921,3.321229934692383,1.0
347,1,347,1,-1,0.6757429525168828,-0.4059261866935917,1.8753511911547665,0.5093051299246693,0.7332351644399921,3.2882323265075684,0.0
348,1,348,-1,-1,0.6692150337628546,-0.3722286884403636,1.8753511911547665,0.5093051299246693,0.7332351644399921,5.16909646987915,0.0
349,1,349,1,1,-0.27541289472290553,-0.5610301905793639,1.8753511911547665,0.6240309884146408,0.7332351644399921,2.9212589263916016,0.0
350,1,350,-1,-1,-1.8573447987025902,-0.7842321968134375,1.8753511911547665,0.5093051299246693,0.7332351644399921,2.7102715969085693,0.0
351,1,351,1,-1,0.12457828139090799,-0.49580404166352693,1.8753511911547665,0.5093051299246693,0.7332351644399921,7.903898239135742,0.0
352,1,352,-1,1,0.2006137551282008,-0.44864301607462764,1.8753511911547665,0.6240309884146408,0.7332351644399921,3.108245372772217,0.0
353,1,353,-1,-1,-1.0190537470490282,-0.6475329388417801,1.8753511911547665,0.5093051299246693,0.7332351644399921,1.6992263793945312,0.0
354,1,354,1,1,0.8787486395397996,-0.3728222584990585,1.8753511911547665,0.6240309884146408,0.7332351644399921,1.4232299327850342,0.0
355,1,355,-1,1,0.8884957277834609,-0.33647081162538506,1.8753511911547665,0.6240309884146408,0.7332351644399921,5.839047908782959,0.0
356,1,356,-1,1,-0.2181746098409627,-0.516934403207443,1.8753511911547665,0.6240309884146408,0.7332351644399921,6.661988258361816,0.0
357,1,357,1,-1,-2.168714128500711,-0.8697688718091479,1.8753511911547665,0.5093051299246693,0.7332351644399921,2.9282584190368652,0.0
358,1,358,-1,-1,-0.6986797814511005,-0.5952898864027891,1.8753511911547665,0.5093051299246693,0.7332351644399921,2.2012476921081543,0.0
359,1,359,1,1,1.6531684257371264,-0.246538421968863,1.8753511911547665,0.6240309884146408,0.7332351644399921,4.8051228523254395,0.0
360,1,360,1,1,0.31375232205580383,-0.4649556257877024,1.8753511911547665,0.6240309884146408,0.7332351644399921,6.80197811126709,1.0
361,1,361,-1,1,1.0243038283624322,-0.3143247246081544,1.8753511911547665,0.6240309884146408,0.7332351644399921,6.473001956939697,0.0
362,1,362,-1,-1,-0.6785256464922164,-0.5920033723829798,1.8753511911547665,0.5093051299246693,0.7332351644399921,2.631267786026001,0.0
363,1,363,1,1,-0.16606227281126973,-0.5431984973451656,1.8753511911547665,0.6240309884146408,0.7332351644399921,3.8421921730041504,0.0
364,1,364,1,-1,-0.8421743394132645,-0.6534513953426646,1.8753511911547665,0.5093051299246693,0.7332351644399921,3.763197898864746,0.0
365,1,365,-1,1,0.01958980927355536,-0.47816240438805335,1.8753511911547665,0.6240309884146408,0.7332351644399921,6.54099702835083,0.0
366,1,366,-1,-1,-2.538449144041561,-0.895299180560255,1.8753511911547665,0.5093051299246693,0.7332351644399921,3.3952245712280273,0.0
367,1,367,1,-1,-2.343190962168892,-0.8982206292848334,1.8753511911547665,0.5093051299246693,0.7332351644399921,3.419222831726074,0.0
368,1,368,1,-1,-1.7554206048989072,-0.8023735227959192,1.8753511911547665,0.5093051299246693,0.7332351644399921,6.484001159667969,0.0
369,1,369,-1,-1,-1.3537950941724275,-0.7021188653811848,1.8753511911547665,0.5093051299246693,0.7332351644399921,1.2202324867248535,0.0
370,1,370,1,1,0.2418141478717657,-0.4766865097228179,1.8753511911547665,0.6240309884146408,0.7332351644399921,9.004947662353516,0.0
371,1,371,-1,-1,0.4729084490352087,-0.40424020092673274,1.8753511911547665,0.5093051299246693,0.7332351644399921,2.7192718982696533,0.0
372,1,372,-1,-1,-1.305166374954064,-0.6941890302479696,1.8753511911547665,0.5093051299246693,0.7332351644399921,1.56522798538208,0.0
373,1,373,1,1,1.8289669772588129,-0.21787113332477742,1.8753511911547665,0.6240309884146408,0.7332351644399921,4.31815767288208,1.0
374,1,374,-1,-1,-0.8711961922123793,-0.6234219597351744,1.8753511911547665,0.5093051299246693,0.7332351644399921,2.111243486404419,0.0
375,1,375,1,-1,-1.5461038779323018,-0.7682404598210135,1.8753511911547665,0.5093051299246693,0.7332351644399921,3.087246894836426,0.0
376,1,376,1,1,1.0743775107063902,-0.34092126006473716,1.8753511911547665,0.6240309884146408,0.7332351644399921,2.392256736755371,0.0
377,1,377,1,-1,-1.1254752040546094,-0.6996489754108406,1.8753511911547665,0.5093051299246693,0.7332351644399921,2.5012617111206055,0.0
378,1,378,-1,1,2.0808048280606175,-0.1420421952644661,1.8753511911547665,0.6240309884146408,0.7332351644399921,3.6292076110839844,0.0
379,1,379,1,-1,-0.10695837527762986,-0.5335604856782816,1.8753511911547665,0.5093051299246693,0.7332351644399921,2.7322726249694824,0.0
380,1,380,-1,1,2.3222182225918533,-0.10267516178397856,1.8753511911547665,0.6240309884146408,0.7332351644399921,2.9632558822631836,0.0
381,1,381,-1,1,2.4765916028275314,-0.07750165374382023,1.8753511911547665,0.6240309884146408,0.7332351644399921,5.287087917327881,1.0
382,1,382,1,1,0.24477028485151875,-0.47620445551169666,1.8753511911547665,0.6240309884146408,0.7332351644399921,4.57913875579834,0.0
383,1,383,-1,-1,-0.7997434281326207,-0.6117702311255704,1.8753511911547665,0.5093051299246693,0.7332351644399921,3.1112451553344727,0.0
384,1,384,1,-1,-0.18074177147135673,-0.5455922680650982,1.8753511911547665,0.5093051299246693,0.7332351644399921,2.8322653770446777,1.0
385,1,385,-1,1,-0.1546019248425332,-0.5065676709735617,1.8753511911547665,0.6240309884146408,0.7332351644399921,3.5432138442993164,0.0
386,1,386,-1,-1,-2.300638842840999,-0.8565196997963738,1.8753511911547665,0.5093051299246693,0.7332351644399921,1.4122300148010254,0.0
387,1,387,1,1,1.6138152288193321,-0.2529557072385359,1.8753511911547665,0.6240309884146408,0.7332351644399921,2.389256477355957,1.0
388,1,388,-1,1,0.7280581687913439,-0.3626331990464905,1.8753511911547665,0.6240309884146408,0.7332351644399921,2.167246103286743,1.0
389,1,389,-1,-1,-2.129716988297295,-0.8286476491032693,1.8753511911547665,0.5093051299246693,0.7332351644399921,2.368255615234375,0.0
390,1,390,-1,-1,-1.6978897574020595,-0.7582300275398584,1.8753511911547665,0.5093051299246693,0.7332351644399921,2.995253562927246,0.0
391,1,391,1,1,1.6113166910256216,-0.25336314122192466,1.8753511911547665,0.6240309884146408,0.7332351644399921,2.82326602935791,0.0
392,1,392,1,1,2.86731609799892,-0.04854861217808237,1.8753511911547665,0.6240309884146408,0.7332351644399921,4.317157745361328,0.0
393,1,393,-1,-1,-0.21205600818277415,-0.5159366491399879,1.8753511911547665,0.5093051299246693,0.7332351644399921,1.9492359161376953,0.0
394,1,394,1,1,0.8097022318560246,-0.38408158505081236,1.8753511911547665,0.6240309884146408,0.7332351644399921,2.0232393741607666,0.0
395,1,395,1,-1,-1.5734284705278576,-0.7726962529787985,1.8753511911547665,0.5093051299246693,0.7332351644399921,1.6842265129089355,0.0
396,1,396,-1,-1,-0.9983823263027753,-0.6441620715616645,1.8753511911547665,0.5093051299246693,0.7332351644399921,1.6482269763946533,0.0
397,1,397,1,1,0.09496573018148713,-0.5006329298748358,1.8753511911547665,0.6240309884146408,0.7332351644399921,4.784124374389648,0.0
398,1,398,-1,1,1.5016902008971074,-0.2364778207642608,1.8753511911547665,0.6240309884146408,0.7332351644399921,3.655205726623535,0.0
399,1,399,1,-1,-0.5579294281360634,-0.6070998705623776,1.8753511911547665,0.5093051299246693,0.7332351644399921,1.1392334699630737,0.0
400,1,400,1,-1,-0.2982652268831646,-0.5647566968364297,1.8753511911547665,0.5093051299246693,0.7332351644399921,4.153169631958008,0.0
401,1,401,-1,1,1.08537015715793,-0.304366701297597,1.8753511911547665,0.6240309884146408,0.7332351644399921,5.996036529541016,0.0
402,1,402,-1,1,-0.6710424994763047,-0.5907831033101438,1.8753511911547665,0.6240309884146408,0.7332351644399921,9.903310775756836,0.0
403,1,403,1,1,-1.1318046403328363,-0.7006811100625296,1.8753511911547665,0.6240309884146408,0.7332351644399921,7.14495325088501,0.0
404,1,404,1,1,0.7992636779452893,-0.38578378928057233,1.8753511911547665,0.6240309884146408,0.7332351644399921,1.663226842880249,0.0
405,1,405,1,-1,-1.1333991190660797,-0.7009411200665205,1.8753511911547665,0.5093051299246693,0.7332351644399921,1.6372270584106445,1.0
406,1,406,1,1,1.465146813045614,-0.27719891260259344,1.8753511911547665,0.6240309884146408,0.7332351644399921,1.525228500366211,1.0
407,1,407,-1,1,2.427166196938132,-0.0855614037515312,1.8753511911547665,0.6240309884146408,0.7332351644399921,3.1992387771606445,0.0
408,1,408,-1,-1,-1.4581828846180263,-0.7191412748021928,1.8753511911547665,0.5093051299246693,0.7332351644399921,5.453075885772705,0.0
409,1,409,1,1,2.153079348757216,-0.16501846288785615,1.8753511911547665,0.6240309884146408,0.7332351644399921,3.7112016677856445,1.0
410,1,410,-1,1,-0.23378704979807607,-0.5194803077033273,1.8753511911547665,0.6240309884146408,0.7332351644399921,6.102028846740723,0.0
411,1,411,-1,-1,-1.2319318421945649,-0.6822467504557933,1.8753511911547665,0.5093051299246693,0.7332351644399921,2.5542643070220947,0.0
412,1,412,-1,-1,-0.9470594181345205,-0.6357928978126319,1.8753511911547665,0.5093051299246693,0.7332351644399921,3.6932029724121094,0.0
413,1,413,-1,-1,-0.6586286852214088,-0.5887587954114791,1.8753511911547665,0.5093051299246693,0.7332351644399921,1.9562363624572754,0.0
414,1,414,1,1,1.4867089721098385,-0.2736827935428323,1.8753511911547665,0.6240309884146408,0.7332351644399921,6.858973979949951,0.0
415,1,415,1,-1,-1.224333778412312,-0.7157697412620054,1.8753511911547665,0.5093051299246693,0.7332351644399921,5.464075088500977,0.0
416,1,416,1,1,-0.9086544477053302,-0.6642922380970694,1.8753511911547665,0.6240309884146408,0.7332351644399921,8.269871711730957,0.0
417,1,417,-1,-1,-1.3527082932073993,-0.7019416418677176,1.8753511911547665,0.5093051299246693,0.7332351644399921,2.402257204055786,0.0
418,1,418,-1,-1,-0.5802491331949293,-0.5759775226291489,1.8753511911547665,0.5093051299246693,0.7332351644399921,1.6742266416549683,0.0
419,1,419,1,-1,-1.9729089144858878,-0.8378391173282785,1.8753511911547665,0.5093051299246693,0.7332351644399921,1.5432283878326416,0.0
420,1,420,1,1,0.6888443572470994,-0.40378975412464774,1.8753511911547665,0.6240309884146408,0.7332351644399921,6.352010726928711,0.0
421,1,421,1,1,2.27794488255166,-0.144656768960352,1.8753511911547665,0.6240309884146408,0.7332351644399921,3.611208915710449,1.0
422,1,422,1,1,2.137777549533106,-0.1675137115195111,1.8753511911547665,0.6240309884146408,0.7332351644399921,13.06358814239502,0.0
423,1,423,1,1,3.155138502810719,-0.0016137092135557474,1.8753511911547665,0.6240309884146408,0.7332351644399921,3.0452499389648438,1.0
424,1,424,-1,-1,0.028213115208635564,-0.47675621077515146,1.8753511911547665,0.5093051299246693,0.7332351644399921,3.378225803375244,0.0
425,1,425,-1,-1,-0.5224530693652285,-0.5665527780567021,1.8753511911547665,0.5093051299246693,0.7332351644399921,3.0972461700439453,0.0
426,1,426,1,1,-0.09824326004025541,-0.53213932081706,1.8753511911547665,0.6240309884146408,0.7332351644399921,1.874232530593872,0.0
427,1,427,1,-1,0.6868524803724116,-0.40411456743406293,1.8753511911547665,0.5093051299246693,0.7332351644399921,6.621991157531738,0.0
428,1,428,-1,1,2.875723327055228,-0.012415654761425532,1.8753511911547665,0.6240309884146408,0.7332351644399921,5.676059722900391,0.0
429,1,429,1,1,1.641851678233122,-0.2483838323229381,1.8753511911547665,0.6240309884146408,0.7332351644399921,2.166246175765991,0.0
430,1,430,1,-1,-0.44034473065184176,-0.5879254551094047,1.8753511911547665,0.5093051299246693,0.7332351644399921,4.74412727355957,0.0
431,1,431,-1,-1,-1.782213242667233,-0.7719805713904648,1.8753511911547665,0.5093051299246693,0.7332351644399921,2.08524227142334,0.0
432,1,432,-1,1,0.6334092322717246,-0.3780675035932429,1.8753511911547665,0.6240309884146408,0.7332351644399921,2.9422574043273926,0.0
433,1,433,1,-1,-1.3132145899253818,-0.7302634436077351,1.8753511911547665,0.5093051299246693,0.7332351644399921,1.5612280368804932,0.0
434,1,434,1,1,3.398915096445013,0.03813868870949633,1.8753511911547665,0.6240309884146408,0.7332351644399921,1.4362297058105469,1.0
435,1,435,1,1,1.2180969883079327,-0.3174850729487565,1.8753511911547665,0.6240309884146408,0.7332351644399921,6.523998260498047,0.0
436,1,436,1,1,0.7239538662599474,-0.3980644826687036,1.8753511911547665,0.6240309884146408,0.7332351644399921,3.890188694000244,1.0
437,1,437,1,-1,0.1743036034601575,-0.487695384633418,1.8753511911547665,0.5093051299246693,0.7332351644399921,1.6252272129058838,0.0
438,1,438,-1,-1,-1.6623096648552753,-0.7524280185119506,1.8753511911547665,0.5093051299246693,0.7332351644399921,3.9081873893737793,0.0
439,1,439,1,-1,0.34476606341642824,-0.4598982469423007,1.8753511911547665,0.5093051299246693,0.7332351644399921,6.528997898101807,0.0
440,1,440,-1,-1,-2.054505490659615,-0.816382987685582,1.8753511911547665,0.5093051299246693,0.7332351644399921,1.4682292938232422,0.0
441,1,441,1,-1,-1.272524859443578,-0.7236282111870174,1.8753511911547665,0.5093051299246693,0.7332351644399921,4.2671613693237305,0.0
442,1,442,-1,1,1.7915830763152418,-0.18920528829148653,1.8753511911547665,0.6240309884146408,0.7332351644399921,5.628063201904297,1.0
443,1,443,1,-1,-1.9418084765295303,-0.8327676009583476,1.8753511911547665,0.5093051299246693,0.7332351644399921,1.860231876373291,0.0
444,1,444,-1,1,1.6093717868181447,-0.21891829550918224,1.8753511911547665,0.6240309884146408,0.7332351644399921,1.6212272644042969,1.0
445,1,445,1,-1,-0.44140395219743467,-0.5880981812753642,1.8753511911547665,0.5093051299246693,0.7332351644399921,2.758270740509033,0.0
446,1,446,1,1,2.295201721691801,-0.1418427139841712,1.8753511911547665,0.6240309884146408,0.7332351644399921,10.194428443908691,0.0
447,1,447,-1,1,0.8622749993820022,-0.34074659878652136,1.8753511911547665,0.6240309884146408,0.7332351644399921,2.2352492809295654,1.0
448,1,448,1,1,-0.2302267128205706,-0.5536617264588924,1.8753511911547665,0.6240309884146408,0.7332351644399921,1.9372353553771973,1.0
449,1,449,-1,-1,-3.174791137335352,-0.9990668136846698,1.8753511911547665,0.5093051299246693,0.7332351644399921,2.8582634925842285,0.0
450,1,450,1,-1,-0.7753349238913173,-0.6425519607285333,1.8753511911547665,0.5093051299246693,0.7332351644399921,3.445220947265625,0.0
451,1,451,1,1,1.8599950847946172,-0.21281141180199287,1.8753511911547665,0.6240309884146408,0.7332351644399921,4.037178039550781,0.0
452,1,452,-1,-1,-1.008919189570991,-0.6458803069970455,1.8753511911547665,0.5093051299246693,0.7332351644399921,5.049105167388916,0.0
453,1,453,1,-1,-1.8299226514546967,-0.8145224947567402,1.8753511911547665,0.5093051299246693,0.7332351644399921,1.613227367401123,0.0
454,1,454,-1,-1,-0.07135620403261633,-0.4929928770620859,1.8753511911547665,0.5093051299246693,0.7332351644399921,3.0322508811950684,1.0
455,1,455,-1,-1,1.662376885413961,-0.21027480870054932,1.8753511911547665,0.5093051299246693,0.7332351644399921,1.612227439880371,0.0
456,1,456,1,-1,-1.246149479640511,-0.7193272051811821,1.8753511911547665,0.5093051299246693,0.7332351644399921,2.845264434814453,0.0
457,1,457,1,-1,-1.6934207337348481,-0.7922632676932944,1.8753511911547665,0.5093051299246693,0.7332351644399921,1.4902290105819702,0.0
458,1,458,1,-1,-1.6220157557840191,-0.7806193315184933,1.8753511911547665,0.5093051299246693,0.7332351644399921,2.39125657081604,0.0
459,1,459,1,1,1.2805910222790415,-0.30729423522639865,1.8753511911547665,0.6240309884146408,0.7332351644399921,3.618208408355713,0.0
460,1,460,-1,1,1.5864038073481557,-0.22266366025387635,1.8753511911547665,0.6240309884146408,0.7332351644399921,1.7852282524108887,0.0
461,1,461,1,1,2.575428370559314,-0.09614644311439208,1.8753511911547665,0.6240309884146408,0.7332351644399921,2.583265542984009,1.0
462,1,462,-1,-1,-1.1562323189990813,-0.6699025072132836,1.8753511911547665,0.5093051299246693,0.7332351644399921,1.6362271308898926,0.0
463,1,463,1,-1,-0.8360821912260731,-0.652457955015466,1.8753511911547665,0.5093051299246693,0.7332351644399921,3.726200580596924,0.0
464,1,464,1,1,0.5756142155160959,-0.4222540766581185,1.8753511911547665,0.6240309884146408,0.7332351644399921,2.63726806640625,0.0
465,1,465,1,1,1.597489024146288,-0.2556180046111444,1.8753511911547665,0.6240309884146408,0.7332351644399921,5.257090091705322,0.0
466,1,466,-1,1,-0.20717663766948213,-0.5151409752183588,1.8753511911547665,0.6240309884146408,0.7332351644399921,5.09710168838501,0.0
467,1,467,1,1,1.8514922956095954,-0.21419795287264987,1.8753511911547665,0.6240309884146408,0.7332351644399921,20.733871459960938,1.0
468,1,468,1,1,1.604871318296977,-0.254414181511116,1.8753511911547665,0.6240309884146408,0.7332351644399921,10.008353233337402,1.0
469,1,469,-1,-1,-1.5611914183172595,-0.7359387702468333,1.8753511911547665,0.5093051299246693,0.7332351644399921,3.0932464599609375,0.0
470,1,470,1,1,0.7288520754704313,-0.3972657367401358,1.8753511911547665,0.6240309884146408,0.7332351644399921,5.703057765960693,0.0
471,1,471,-1,1,1.7787145896881693,-0.19130373914536253,1.8753511911547665,0.6240309884146408,0.7332351644399921,7.222947597503662,0.0
472,1,472,1,-1,-1.852528992675823,-0.8182088875248443,1.8753511911547665,0.5093051299246693,0.7332351644399921,3.611208915710449,0.0
473,1,473,1,1,0.7325594909052386,-0.3966611723255078,1.8753511911547665,0.6240309884146408,0.7332351644399921,2.5672647953033447,0.0
474,1,474,-1,1,-0.1736647550491892,-0.5096762270519659,1.8753511911547665,0.6240309884146408,0.7332351644399921,1.0902341604232788,1.0
475,1,475,-1,-1,-2.86880294514875,-0.9491696344919666,1.8753511911547665,0.5093051299246693,0.7332351644399921,2.4702603816986084,0.0
476,1,476,1,1,-0.18979466235624143,-0.5470685136530966,1.8753511911547665,0.6240309884146408,0.7332351644399921,3.9021878242492676,0.0
477,1,477,-1,-1,0.016032091515189695,-0.4787425577568408,1.8753511911547665,0.5093051299246693,0.7332351644399921,2.9632558822631836,0.0
478,1,478,1,-1,-0.7373118810566242,-0.6363515823145273,1.8753511911547665,0.5093051299246693,0.7332351644399921,2.126244306564331,0.0
479,1,479,1,-1,-2.611439844884485,-0.9419636981707721,1.8753511911547665,0.5093051299246693,0.7332351644399921,1.550228238105774,0.0
480,1,480,-1,1,1.370705694892188,-0.25783732918479957,1.8753511911547665,0.6240309884146408,0.7332351644399921,9.401107788085938,0.0
481,1,481,-1,-1,0.12759960324829578,-0.4605493585838612,1.8753511911547665,0.5093051299246693,0.7332351644399921,1.4152300357818604,0.0
482,1,482,-1,-1,-1.4764954651269169,-0.7221274884354812,1.8753511911547665,0.5093051299246693,0.7332351644399921,1.479229211807251,0.0
483,1,483,-1,1,2.5828847288004226,-0.06016854322173992,1.8753511911547665,0.6240309884146408,0.7332351644399921,4.28216028213501,1.0
484,1,484,-1,-1,-1.0305502117571255,-0.6494076554951361,1.8753511911547665,0.5093051299246693,0.7332351644399921,7.5559234619140625,0.0
485,1,485,-1,-1,-0.09058845242957658,-0.4961290599902052,1.8753511911547665,0.5093051299246693,0.7332351644399921,1.7692275047302246,0.0
486,1,486,-1,-1,0.13074831717874824,-0.46003590104783143,1.8753511911547665,0.5093051299246693,0.7332351644399921,1.4672293663024902,0.0
487,1,487,1,-1,-1.349993918600112,-0.7362610108352677,1.8753511911547665,0.5093051299246693,0.7332351644399921,1.575227975845337,0.0
488,1,488,-1,-1,-0.9819001475373337,-0.641474339654533,1.8753511911547665,0.5093051299246693,0.7332351644399921,1.7662274837493896,0.0
489,1,489,1,1,1.7239597292362334,-0.2349945570545402,1.8753511911547665,0.6240309884146408,0.7332351644399921,8.34786605834961,1.0
490,1,490,-1,1,1.4182088496218916,-0.25009103869290616,1.8753511911547665,0.6240309884146408,0.7332351644399921,2.7222721576690674,1.0
491,1,491,-1,1,1.998057969104768,-0.15553564028745398,1.8753511911547665,0.6240309884146408,0.7332351644399921,4.658133029937744,1.0
492,1,492,-1,1,0.724265831338032,-0.3632516116071677,1.8753511911547665,0.6240309884146408,0.7332351644399921,7.295942306518555,1.0
493,1,493,1,-1,-1.1542898689848728,-0.7043477531287933,1.8753511911547665,0.5093051299246693,0.7332351644399921,5.889044284820557,0.0
494,1,494,-1,-1,-0.595874005410842,-0.5785254544406648,1.8753511911547665,0.5093051299246693,0.7332351644399921,1.3172311782836914,0.0
495,1,495,-1,-1,-1.4314971399214365,-0.714789657912988,1.8753511911547665,0.5093051299246693,0.7332351644399921,1.7422263622283936,0.0
496,1,496,-1,1,0.9658506498579527,-0.32385662419349004,1.8753511911547665,0.6240309884146408,0.7332351644399921,3.6662049293518066,1.0
497,1,497,-1,-1,-2.643278479317227,-0.9123935922417097,1.8753511911547665,0.5093051299246693,0.7332351644399921,3.6252079010009766,0.0
498,1,498,1,1,0.4287571499634889,-0.446201907008135,1.8753511911547665,0.6240309884146408,0.7332351644399921,1.9502360820770264,0.0
499,1,499,-1,1,0.3048321843684987,-0.43164822421084903,1.8753511911547665,0.6240309884146408,0.7332351644399921,5.361082553863525,0.0
500,2,0,-1,1,1.5944295665273962,0.6103626308243308,1.875072739481245,0.657502762474204,0.681877946075417,1.031877040863037,1.0
501,2,1,-1,-1,-1.0352227282950772,0.2014037198460762,1.875072739481245,0.4842436039364466,0.681877946075417,3.002892017364502,1.0
502,2,2,-1,1,1.007530569891185,0.5190891286236231,1.875072739481245,0.657502762474204,0.681877946075417,4.1848063468933105,1.0
503,2,3,-1,1,1.796181748093156,0.6417387761128434,1.875072739481245,0.657502762474204,0.681877946075417,1.2118747234344482,1.0
504,2,4,-1,-1,-2.042367945460059,0.04477426278070601,1.875072739481245,0.4842436039364466,0.681877946075417,2.2458949089050293,1.0
505,2,5,-1,1,-0.5314213042630349,0.2797540333560025,1.875072739481245,0.657502762474204,0.681877946075417,9.050629615783691,1.0
506,2,6,-1,1,2.257065239002057,0.713414567966034,1.875072739481245,0.657502762474204,0.681877946075417,1.0158772468566895,1.0
507,2,7,1,-1,-0.4826894266573002,-1.4376070501192266,1.875072739481245,0.4842436039364466,0.681877946075417,1.4698714017868042,0.0
508,2,8,-1,1,0.05692894669544735,0.37125323208258065,1.875072739481245,0.657502762474204,0.681877946075417,2.201892852783203,1.0
509,2,9,1,-1,-0.1017779719747568,-1.3783683690233168,1.875072739481245,0.4842436039364466,0.681877946075417,1.7968740463256836,0.0
510,2,10,-1,1,2.3728758790033666,0.7314252355010085,1.875072739481245,0.657502762474204,0.681877946075417,2.4799060821533203,1.0
511,2,11,1,-1,-0.3263460199710889,-1.4132927978270469,1.875072739481245,0.4842436039364466,0.681877946075417,1.2888736724853516,0.0
512,2,12,-1,-1,-1.2843196836636717,0.1626645984055298,1.875072739481245,0.4842436039364466,0.681877946075417,4.856758117675781,1.0
513,2,13,-1,-1,-0.6843673102724224,0.2559681388561004,1.875072739481245,0.4842436039364466,0.681877946075417,1.4398717880249023,1.0
514,2,14,1,-1,-1.5263733183296149,-1.5999189377342664,1.875072739481245,0.4842436039364466,0.681877946075417,2.0218844413757324,0.0
515,2,15,-1,-1,-1.5277091141256913,0.12481310122419434,1.875072739481245,0.4842436039364466,0.681877946075417,1.4018722772598267,1.0
516,2,16,1,-1,-0.19001958276792963,-1.3920915495076702,1.875072739481245,0.4842436039364466,0.681877946075417,2.2878971099853516,0.0
517,2,17,1,1,-1.1267398477422468,-1.5377686415739507,1.875072739481245,0.657502762474204,0.681877946075417,1.4418717622756958,0.0
518,2,18,-1,-1,0.2683058991788796,0.4041262048568624,1.875072739481245,0.4842436039364466,0.681877946075417,7.8375420570373535,1.0
519,2,19,1,1,2.2830102332754048,-1.0074902916238357,1.875072739481245,0.657502762474204,0.681877946075417,2.40590238571167,0.0
520,2,20,-1,-1,-1.6977320467617996,0.09837143305799062,1.875072739481245,0.4842436039364466,0.681877946075417,7.130593299865723,0.0
521,2,21,1,-1,-1.4498637964832295,-1.5880203111381304,1.875072739481245,0.4842436039364466,0.681877946075417,1.6788687705993652,0.0
522,2,22,-1,1,0.6251008075488899,0.4596143229844479,1.875072739481245,0.657502762474204,0.681877946075417,1.8268754482269287,1.0
523,2,23,-1,-1,-1.7130725057457616,0.09598571179273441,1.875072739481245,0.4842436039364466,0.681877946075417,2.161890983581543,1.0
524,2,24,-1,1,1.5205766887353716,0.5988771608502576,1.875072739481245,0.657502762474204,0.681877946075417,1.9938832521438599,1.0
525,2,25,-1,-1,-1.8098511363285716,0.0809348689695068,1.875072739481245,0.4842436039364466,0.681877946075417,2.6099119186401367,0.0
526,2,26,1,1,0.2479798589508111,-1.3239746448328367,1.875072739481245,0.657502762474204,0.681877946075417,3.169879913330078,0.0
527,2,27,-1,1,-0.35761141798609697,0.30678464190794774,1.875072739481245,0.657502762474204,0.681877946075417,1.2108747959136963,1.0
528,2,28,1,1,1.9190794446072896,-1.0640881693349713,1.875072739481245,0.657502762474204,0.681877946075417,1.9578815698623657,0.0
529,2,29,-1,-1,-1.5254926917453426,0.125157795343915,1.875072739481245,0.4842436039364466,0.681877946075417,5.163735866546631,1.0
530,2,30,-1,-1,-0.90459093855588,0.2217193465835225,1.875072739481245,0.4842436039364466,0.681877946075417,1.8588769435882568,1.0
531,2,31,1,1,1.3453603360477424,-1.1533119584670501,1.875072739481245,0.657502762474204,0.681877946075417,2.4749057292938232,0.0
532,2,32,1,1,2.1787292738818245,-1.0237078834603432,1.875072739481245,0.657502762474204,0.681877946075417,2.918898105621338,0.0
533,2,33,-1,-1,-2.696259733851204,-0.056917840850097046,1.875072739481245,0.4842436039364466,0.681877946075417,2.3418993949890137,1.0
534,2,34,-1,1,1.769881765826646,0.6376486490159508,1.875072739481245,0.657502762474204,0.681877946075417,3.109884262084961,1.0
535,2,35,-1,1,2.301125332740827,0.72026671643771,1.875072739481245,0.657502762474204,0.681877946075417,2.0768871307373047,1.0
536,2,36,1,1,2.689042894575829,-0.944344804551662,1.875072739481245,0.657502762474204,0.681877946075417,1.914879560470581,1.0
537,2,37,-1,-1,-1.282191824858129,0.16299551927348774,1.875072739481245,0.4842436039364466,0.681877946075417,2.9908928871154785,1.0
538,2,38,1,-1,-0.9077818289527423,-1.50371667466927,1.875072739481245,0.4842436039364466,0.681877946075417,1.1618753671646118,0.0
539,2,39,-1,-1,-1.1902077568377392,0.17730072013940978,1.875072739481245,0.4842436039364466,0.681877946075417,2.0968880653381348,0.0
540,2,40,1,1,1.937669846558752,-1.0611970226416663,1.875072739481245,0.657502762474204,0.681877946075417,2.450904607772827,0.0
541,2,41,1,-1,-1.2293381997074389,-1.5537245572554501,1.875072739481245,0.4842436039364466,0.681877946075417,1.785873532295227,0.0
542,2,42,-1,1,0.5230726183175842,0.4437470780109314,1.875072739481245,0.657502762474204,0.681877946075417,0.8978782296180725,1.0
543,2,43,1,1,0.6881600415560901,-1.2555185951615941,1.875072739481245,0.657502762474204,0.681877946075417,2.3498997688293457,0.0
544,2,44,-1,-1,-0.8722580494595914,0.22674770076541692,1.875072739481245,0.4842436039364466,0.681877946075417,2.0788872241973877,0.0
545,2,45,-1,-1,-2.895282665364358,-0.08786953795909225,1.875072739481245,0.4842436039364466,0.681877946075417,4.79476261138916,0.0
546,2,46,-1,1,1.2837474795661683,0.5620458977740047,1.875072739481245,0.657502762474204,0.681877946075417,3.4558591842651367,1.0
547,2,47,-1,-1,-0.2357222322222422,0.32574063421467114,1.875072739481245,0.4842436039364466,0.681877946075417,2.8149056434631348,1.0
548,2,48,-1,-1,-2.6569358021554694,-0.05080225198941973,1.875072739481245,0.4842436039364466,0.681877946075417,1.8478764295578003,0.0
549,2,49,-1,1,3.5487946131587225,0.9143020538035467,1.875072739481245,0.657502762474204,0.681877946075417,3.0288901329040527,1.0
550,2,50,-1,-1,-1.931810282549649,0.06196799653522683,1.875072739481245,0.4842436039364466,0.681877946075417,3.1168837547302246,0.0
551,2,51,-1,1,-0.07046654276561637,0.35144090908606995,1.875072739481245,0.657502762474204,0.681877946075417,1.6508691310882568,1.0
552,2,52,1,-1,0.3253992623007995,-1.3119345150617123,1.875072739481245,0.4842436039364466,0.681877946075417,1.7108700275421143,0.0
553,2,53,1,1,1.6297300266495816,-1.1090872831315597,1.875072739481245,0.657502762474204,0.681877946075417,4.055815696716309,0.0
554,2,54,1,1,0.5538355853139524,-1.276408498914531,1.875072739481245,0.657502762474204,0.681877946075417,2.18689227104187,0.0
555,2,55,1,1,1.1023934557636246,-1.1910977413861128,1.875072739481245,0.657502762474204,0.681877946075417,3.130882740020752,0.0
556,2,56,-1,-1,-1.0352001284007175,0.20140723454199388,1.875072739481245,0.4842436039364466,0.681877946075417,2.976893901824951,0.0
557,2,57,1,1,0.626143792126635,-1.2651632534609296,1.875072739481245,0.657502762474204,0.681877946075417,1.3768725395202637,0.0
558,2,58,-1,-1,-2.1582701505268775,0.026749355207401015,1.875072739481245,0.4842436039364466,0.681877946075417,4.178806781768799,0.0
559,2,59,1,1,-0.8980083091564914,-1.502196714018895,1.875072739481245,0.657502762474204,0.681877946075417,1.2658740282058716,0.0
560,2,60,-1,1,1.9336579597431753,0.6631188353368342,1.875072739481245,0.657502762474204,0.681877946075417,3.3808646202087402,1.0
561,2,61,1,1,-0.14725584571104378,-1.3854410081526105,1.875072739481245,0.657502762474204,0.681877946075417,2.0528860092163086,0.0
562,2,62,1,1,0.40084845489326604,-1.3002007890107226,1.875072739481245,0.657502762474204,0.681877946075417,3.3698654174804688,0.0
563,2,63,-1,1,1.5400259477292524,0.6019018754838736,1.875072739481245,0.657502762474204,0.681877946075417,2.6879148483276367,1.0
564,2,64,1,-1,0.7191793879833566,-1.2506945208308817,1.875072739481245,0.4842436039364466,0.681877946075417,1.5758700370788574,0.0
565,2,65,-1,-1,-2.0110309382184752,0.04964773916390253,1.875072739481245,0.4842436039364466,0.681877946075417,5.814688682556152,1.0
566,2,66,-1,-1,-0.3817183106237956,0.3030355802621957,1.875072739481245,0.4842436039364466,0.681877946075417,2.5439090728759766,0.0
567,2,67,-1,1,1.808563365471286,0.6436643435230592,1.875072739481245,0.657502762474204,0.681877946075417,1.1458755731582642,1.0
568,2,68,1,1,2.648946460667809,-0.9505805316009839,1.875072739481245,0.657502762474204,0.681877946075417,2.5809106826782227,0.0
569,2,69,-1,1,-0.27819980327002436,0.3191345968952486,1.875072739481245,0.657502762474204,0.681877946075417,2.112888813018799,1.0
570,2,70,-1,-1,-1.6236845199483656,0.10988717450634788,1.875072739481245,0.4842436039364466,0.681877946075417,4.8517584800720215,1.0
571,2,71,-1,1,1.7097325382166806,0.6282943466741595,1.875072739481245,0.657502762474204,0.681877946075417,4.233802795410156,1.0
572,2,72,1,1,1.8053085549975414,-1.0817816184679379,1.875072739481245,0.657502762474204,0.681877946075417,1.6018697023391724,0.0
573,2,73,1,-1,-1.3314360176336646,-1.569602630761432,1.875072739481245,0.4842436039364466,0.681877946075417,1.3288731575012207,0.0
574,2,74,1,-1,-1.8190187447381754,-1.6454306409820494,1.875072739481245,0.4842436039364466,0.681877946075417,2.175891876220703,0.0
575,2,75,-1,1,-0.13487325269262107,0.34142449056438917,1.875072739481245,0.657502762474204,0.681877946075417,1.414872169494629,1.0
576,2,76,1,1,-0.08155043308809562,-1.3752226176663231,1.875072739481245,0.657502762474204,0.681877946075417,1.5098708868026733,0.0
577,2,77,1,1,1.498515118877401,-1.1294935953623735,1.875072739481245,0.657502762474204,0.681877946075417,1.4288718700408936,0.0
578,2,78,-1,1,0.985555677510335,0.5156716319170696,1.875072739481245,0.657502762474204,0.681877946075417,4.361793518066406,1.0
579,2,79,-1,1,1.123295888704758,0.537092747887,1.875072739481245,0.657502762474204,0.681877946075417,3.576850414276123,1.0
580,2,80,-1,1,1.504382430933096,0.5963586582908282,1.875072739481245,0.657502762474204,0.681877946075417,3.192878246307373,0.0
581,2,81,-1,-1,-2.124879711451142,0.031942177706552166,1.875072739481245,0.4842436039364466,0.681877946075417,1.8058744668960571,0.0
582,2,82,-1,1,1.6724405638605453,0.6224947642537225,1.875072739481245,0.657502762474204,0.681877946075417,14.410796165466309,1.0
583,2,83,1,1,-0.19056619260856378,-1.3921765573110199,1.875072739481245,0.657502762474204,0.681877946075417,2.3248987197875977,0.0
584,2,84,-1,1,1.8546694123845586,0.6508346750426631,1.875072739481245,0.657502762474204,0.681877946075417,0.966877818107605,1.0
585,2,85,-1,1,-1.3666790591726912,0.1498562128317665,1.875072739481245,0.657502762474204,0.681877946075417,1.6518690586090088,1.0
586,2,86,1,-1,-1.5173313411073015,-1.5985127453014463,1.875072739481245,0.4842436039364466,0.681877946075417,1.7268707752227783,0.0
587,2,87,-1,-1,-2.2075663946914927,0.01908288980869699,1.875072739481245,0.4842436039364466,0.681877946075417,2.9088988304138184,1.0
588,2,88,1,1,-0.631024560789609,-1.460675869914909,1.875072739481245,0.657502762474204,0.681877946075417,2.5889110565185547,0.0
589,2,89,1,-1,-0.9193396651979565,-1.5055141290830778,1.875072739481245,0.4842436039364466,0.681877946075417,1.4648714065551758,0.0
590,2,90,-1,1,-0.9984092073672708,0.20712889402882012,1.875072739481245,0.657502762474204,0.681877946075417,0.8958781957626343,1.0
591,2,91,1,1,-0.6770245816851759,-1.4678297124542696,1.875072739481245,0.657502762474204,0.681877946075417,2.635913372039795,0.0
592,2,92,1,-1,-2.4074184890487733,-1.736937536827909,1.875072739481245,0.4842436039364466,0.681877946075417,2.5179076194763184,0.0
593,2,93,-1,1,1.2962060236634314,0.5639834286926066,1.875072739481245,0.657502762474204,0.681877946075417,3.594849109649658,1.0
594,2,94,1,-1,-2.8400805522327905,-1.8042243817578336,1.875072739481245,0.4842436039364466,0.681877946075417,1.5568702220916748,0.0
595,2,95,-1,1,1.0899519467126724,0.5319071565327157,1.875072739481245,0.657502762474204,0.681877946075417,2.8619022369384766,1.0
596,2,96,-1,1,0.600137833080137,0.45573212499438687,1.875072739481245,0.657502762474204,0.681877946075417,2.3388993740081787,1.0
597,2,97,-1,1,-0.2887310252455271,0.31749679973139855,1.875072739481245,0.657502762474204,0.681877946075417,3.040889263153076,1.0
598,2,98,-1,1,0.3462804941286436,0.4162526770514606,1.875072739481245,0.657502762474204,0.681877946075417,1.1778751611709595,1.0
599,2,99,-1,1,0.2984597277299551,0.4088156753660825,1.875072739481245,0.657502762474204,0.681877946075417,5.760692596435547,1.0
600,2,100,1,-1,-1.0196492828975483,-1.5211141048273384,1.875072739481245,0.4842436039364466,0.681877946075417,1.9788825511932373,0.0
601,2,101,1,-1,0.11147295991783812,-1.3452039582593527,1.875072739481245,0.4842436039364466,0.681877946075417,1.924880027770996,0.0
602,2,102,1,1,1.3743403109116963,-1.1488050436236412,1.875072739481245,0.657502762474204,0.681877946075417,1.5168707370758057,0.0
603,2,103,1,1,-0.948897448166611,-1.5101109036291243,1.875072739481245,0.657502762474204,0.681877946075417,1.9848828315734863,0.0
604,2,104,1,1,0.39847019553080876,-1.3005706517339461,1.875072739481245,0.657502762474204,0.681877946075417,3.302870273590088,0.0
605,2,105,1,1,-0.29050415831576437,-1.4077187343895137,1.875072739481245,0.657502762474204,0.681877946075417,3.47285795211792,0.0
606,2,106,1,1,1.8405274839117614,-1.0763044324373214,1.875072739481245,0.657502762474204,0.681877946075417,1.274873971939087,1.0
607,2,107,1,-1,-2.01305336162321,-1.6756065641524331,1.875072739481245,0.4842436039364466,0.681877946075417,3.0308899879455566,0.0
608,2,108,-1,-1,-0.974400866822704,0.21086262902596503,1.875072739481245,0.4842436039364466,0.681877946075417,4.485784530639648,0.0
609,2,109,-1,-1,-1.6485273642422467,0.10602365895030602,1.875072739481245,0.4842436039364466,0.681877946075417,11.840757369995117,1.0
610,2,110,1,1,2.0861372841047388,-1.0381076272512244,1.875072739481245,0.657502762474204,0.681877946075417,2.8629021644592285,0.0
611,2,111,1,-1,-1.274425378043734,-1.56073643612164,1.875072739481245,0.4842436039364466,0.681877946075417,1.5728700160980225,0.0
612,2,112,-1,-1,-2.4819271113838672,-0.023585207465852243,1.875072739481245,0.4842436039364466,0.681877946075417,3.1348824501037598,1.0
613,2,113,1,1,1.4172327691433957,-1.142134483777325,1.875072739481245,0.657502762474204,0.681877946075417,2.351900100708008,0.0
614,2,114,-1,-1,-0.9239954334203864,0.2187015935887649,1.875072739481245,0.4842436039364466,0.681877946075417,1.3038735389709473,1.0
615,2,115,-1,-1,0.9596248989383438,0.5116389227309542,1.875072739481245,0.4842436039364466,0.681877946075417,6.350649833679199,1.0
616,2,116,1,-1,-0.16080654483385404,-1.3875483891045217,1.875072739481245,0.4842436039364466,0.681877946075417,1.543870449066162,0.0
617,2,117,-1,1,1.1280460311016038,0.5378314816980938,1.875072739481245,0.657502762474204,0.681877946075417,1.2158746719360352,1.0
618,2,118,1,-1,-2.0975147374443877,-1.6887418491266337,1.875072739481245,0.4842436039364466,0.681877946075417,1.5768699645996094,0.0
619,2,119,-1,-1,-1.6990583038299034,0.09816517588577173,1.875072739481245,0.4842436039364466,0.681877946075417,2.2588956356048584,1.0
620,2,120,1,1,0.9915461043586302,-1.2083365269870323,1.875072739481245,0.657502762474204,0.681877946075417,2.7089133262634277,0.0
621,2,121,-1,1,2.1408275006600492,0.6953374788464886,1.875072739481245,0.657502762474204,0.681877946075417,2.5009069442749023,1.0
622,2,122,-1,-1,-0.40389567006170646,0.2995865962341709,1.875072739481245,0.4842436039364466,0.681877946075417,3.2628731727600098,1.0
623,2,123,1,-1,-0.9433387298339391,-1.5092464215071948,1.875072739481245,0.4842436039364466,0.681877946075417,1.5318706035614014,0.0
624,2,124,1,1,1.3197758880296604,-1.1572908069330832,1.875072739481245,0.657502762474204,0.681877946075417,2.171891689300537,0.0
625,2,125,1,-1,0.2769133972928437,-1.3194749517158408,1.875072739481245,0.4842436039364466,0.681877946075417,1.084876298904419,0.0
626,2,126,-1,1,0.5001056928602337,0.44017530206091326,1.875072739481245,0.657502762474204,0.681877946075417,1.7118700742721558,1.0
627,2,127,-1,-1,-1.7141921005054823,0.0958115943801115,1.875072739481245,0.4842436039364466,0.681877946075417,2.703913688659668,1.0
628,2,128,1,-1,-1.2729450783980958,-1.5605062225180417,1.875072739481245,0.4842436039364466,0.681877946075417,1.5598702430725098,0.0
629,2,129,-1,-1,0.08418943473175045,0.3754927353515156,1.875072739481245,0.4842436039364466,0.681877946075417,4.685770511627197,1.0
630,2,130,-1,-1,-1.5045043487233292,0.1284218656251535,1.875072739481245,0.4842436039364466,0.681877946075417,6.223659038543701,1.0
631,2,131,-1,-1,-0.542391752444054,0.2780479285033243,1.875072739481245,0.4842436039364466,0.681877946075417,7.003602504730225,1.0
632,2,132,-1,-1,-2.6723837534277655,-0.05320469026675473,1.875072739481245,0.4842436039364466,0.681877946075417,6.111667156219482,1.0
633,2,133,-1,1,2.0793405715649316,0.6857751395168191,1.875072739481245,0.657502762474204,0.681877946075417,2.4829061031341553,1.0
634,2,134,1,-1,-0.24725365445197456,-1.4009924919147114,1.875072739481245,0.4842436039364466,0.681877946075417,2.0028836727142334,0.0
635,2,135,-1,1,0.7533957736695809,0.47956653101286784,1.875072739481245,0.657502762474204,0.681877946075417,3.8058338165283203,1.0
636,2,136,1,-1,-0.4594150841811563,-1.433987465213831,1.875072739481245,0.4842436039364466,0.681877946075417,1.76787269115448,0.0
637,2,137,-1,-1,-0.06837778633222213,0.3517657488217193,1.875072739481245,0.4842436039364466,0.681877946075417,2.0578861236572266,1.0
638,2,138,-1,1,0.5456326772757429,0.44725557879687144,1.875072739481245,0.657502762474204,0.681877946075417,1.6488690376281738,1.0
639,2,139,1,1,-0.35950423800029774,-1.4184495057164905,1.875072739481245,0.657502762474204,0.681877946075417,2.37990140914917,0.0
640,2,140,1,1,1.8254670023487671,-1.078646612105309,1.875072739481245,0.657502762474204,0.681877946075417,2.5549094676971436,0.0
641,2,141,-1,-1,-2.0984717219943363,0.03604910189217325,1.875072739481245,0.4842436039364466,0.681877946075417,4.3567938804626465,0.0
642,2,142,1,1,1.6126836402927678,-1.1117383072286706,1.875072739481245,0.657502762474204,0.681877946075417,2.669914722442627,0.0
643,2,143,-1,-1,0.23890070112889572,0.3995531600496465,1.875072739481245,0.4842436039364466,0.681877946075417,2.743910789489746,1.0
644,2,144,1,1,2.769714239905512,-0.9317989384696199,1.875072739481245,0.657502762474204,0.681877946075417,4.255801200866699,0.0
645,2,145,-1,1,1.8365603865198126,0.6480183911137556,1.875072739481245,0.657502762474204,0.681877946075417,4.022818088531494,1.0
646,2,146,-1,1,1.6534918478993785,0.6195478931943157,1.875072739481245,0.657502762474204,0.681877946075417,2.100888252258301,1.0
647,2,147,-1,-1,-0.5556509979022084,0.2759858739139641,1.875072739481245,0.4842436039364466,0.681877946075417,4.5047831535339355,1.0
648,2,148,-1,1,-0.1780461176626098,0.33471032235412784,1.875072739481245,0.657502762474204,0.681877946075417,2.674915075302124,1.0
649,2,149,-1,1,0.9309409480515894,0.5071780450170842,1.875072739481245,0.657502762474204,0.681877946075417,1.366872787475586,1.0
650,2,150,-1,1,1.6093896073472378,0.6126891901241739,1.875072739481245,0.657502762474204,0.681877946075417,2.401902198791504,1.0
651,2,151,-1,1,2.2962289178513133,0.719505234585202,1.875072739481245,0.657502762474204,0.681877946075417,1.1338757276535034,1.0
652,2,152,-1,-1,-1.7851814570142577,0.08477145421175675,1.875072739481245,0.4842436039364466,0.681877946075417,5.35772180557251,1.0
653,2,153,1,1,-0.029369251575656508,-1.367107491873114,1.875072739481245,0.657502762474204,0.681877946075417,1.2928736209869385,0.0
654,2,154,-1,-1,-0.5578360773414655,0.2756460541934486,1.875072739481245,0.4842436039364466,0.681877946075417,3.538853168487549,1.0
655,2,155,1,-1,-0.5762641654110543,-1.452159629306656,1.875072739481245,0.4842436039364466,0.681877946075417,2.4789059162139893,0.0
656,2,156,1,-1,1.2115456868032375,-1.1741225779302078,1.875072739481245,0.4842436039364466,0.681877946075417,3.105884552001953,0.0
657,2,157,-1,-1,-0.867320875596092,0.22751552138204462,1.875072739481245,0.4842436039364466,0.681877946075417,1.3498729467391968,0.0
658,2,158,1,1,2.6885228358023108,-0.9444256831796395,1.875072739481245,0.657502762474204,0.681877946075417,1.6338692903518677,0.0
659,2,159,-1,-1,-3.1953073502466305,-0.13452885053727148,1.875072739481245,0.4842436039364466,0.681877946075417,6.276655197143555,0.0
660,2,160,-1,-1,-0.899976041609926,0.22243704725939137,1.875072739481245,0.4842436039364466,0.681877946075417,11.325549125671387,1.0
661,2,161,1,1,0.22344113683405142,-1.3277908638414968,1.875072739481245,0.657502762474204,0.681877946075417,1.6078696250915527,0.0
662,2,162,-1,1,1.192963876546208,0.547927391118648,1.875072739481245,0.657502762474204,0.681877946075417,4.755765438079834,1.0
663,2,163,1,-1,-1.4889670546361544,-1.5941015812366173,1.875072739481245,0.4842436039364466,0.681877946075417,2.8469033241271973,0.0
664,2,164,-1,1,1.1406702454528956,0.5397947773639221,1.875072739481245,0.657502762474204,0.681877946075417,7.172590255737305,1.0
665,2,165,-1,-1,-0.2906540179813534,0.3171977392751508,1.875072739481245,0.4842436039364466,0.681877946075417,1.6148695945739746,1.0
666,2,166,1,1,0.2434692070037845,-1.3246761335093777,1.875072739481245,0.657502762474204,0.681877946075417,2.8599023818969727,0.0
667,2,167,-1,-1,-0.271268973676389,0.3202124673530158,1.875072739481245,0.4842436039364466,0.681877946075417,9.831945419311523,0.0
668,2,168,-1,-1,1.0405924385163536,0.5242308524228023,1.875072739481245,0.4842436039364466,0.681877946075417,1.9938832521438599,1.0
669,2,169,1,-1,-1.7478893290673956,-1.6343687190585634,1.875072739481245,0.4842436039364466,0.681877946075417,4.892755508422852,0.0
670,2,170,-1,-1,-1.1567980246844252,0.18249654306413485,1.875072739481245,0.4842436039364466,0.681877946075417,8.042527198791504,1.0
671,2,171,1,1,2.0905145330058827,-1.037426885182314,1.875072739481245,0.657502762474204,0.681877946075417,1.59486985206604,0.0
672,2,172,1,1,1.3237394232036008,-1.1566744048971371,1.875072739481245,0.657502762474204,0.681877946075417,1.5168707370758057,0.0
673,2,173,-1,-1,-1.3399262052549799,0.15401676973325837,1.875072739481245,0.4842436039364466,0.681877946075417,2.0838875770568848,1.0
674,2,174,1,1,1.0159368281084684,-1.2045433244247221,1.875072739481245,0.657502762474204,0.681877946075417,3.4868569374084473,0.0
675,2,175,-1,-1,-1.3052735930072008,0.15940588318955284,1.875072739481245,0.4842436039364466,0.681877946075417,2.667914867401123,1.0
676,2,176,1,-1,-2.720659274448069,-1.7856521941699044,1.875072739481245,0.4842436039364466,0.681877946075417,1.1078760623931885,0.0
677,2,177,1,-1,-0.37064572923763717,-1.4201822108851803,1.875072739481245,0.4842436039364466,0.681877946075417,1.4748713970184326,0.0
678,2,178,-1,-1,-1.6057995478410865,0.11266861398801259,1.875072739481245,0.4842436039364466,0.681877946075417,1.9658819437026978,1.0
679,2,179,1,-1,-0.5671684272739728,-1.4507450760706986,1.875072739481245,0.4842436039364466,0.681877946075417,1.1898750066757202,0.0
680,2,180,1,1,2.5207912034521973,-0.9705110123456151,1.875072739481245,0.657502762474204,0.681877946075417,3.0378894805908203,0.0
681,2,181,-1,1,1.724836614923357,0.6306433061824017,1.875072739481245,0.657502762474204,0.681877946075417,1.0518767833709717,1.0
682,2,182,1,1,2.259983947926357,-1.0110712991200594,1.875072739481245,0.657502762474204,0.681877946075417,3.1988778114318848,0.0
683,2,183,-1,-1,0.3156624260672163,0.41149100882813194,1.875072739481245,0.4842436039364466,0.681877946075417,1.8218752145767212,1.0
684,2,184,1,1,0.4184347279323535,-1.2974658026840542,1.875072739481245,0.657502762474204,0.681877946075417,1.904879093170166,0.0
685,2,185,1,-1,-0.7299086100335872,-1.4760541437542143,1.875072739481245,0.4842436039364466,0.681877946075417,1.7228705883026123,0.0
686,2,186,1,1,2.080060041874752,-1.0390527492998771,1.875072739481245,0.657502762474204,0.681877946075417,1.4358718395233154,0.0
687,2,187,-1,-1,-0.14677124713321565,0.3395741353448679,1.875072739481245,0.4842436039364466,0.681877946075417,2.100888252258301,1.0
688,2,188,-1,1,-0.19047482569639507,0.3327774314877684,1.875072739481245,0.657502762474204,0.681877946075417,4.865757465362549,1.0
689,2,189,1,1,1.2070563127047638,-1.1748207575130754,1.875072739481245,0.657502762474204,0.681877946075417,3.4778575897216797,0.0
690,2,190,1,1,0.5017065116296024,-1.2845155209897428,1.875072739481245,0.657502762474204,0.681877946075417,1.4538716077804565,0.0
691,2,191,1,1,-0.2522387129818613,-1.4017677594706386,1.875072739481245,0.657502762474204,0.681877946075417,2.3508999347686768,0.0
692,2,192,-1,1,-0.16583559305167817,0.33660928171738347,1.875072739481245,0.657502762474204,0.681877946075417,1.914879560470581,1.0
693,2,193,1,1,1.8785360024440574,-1.0703934143238358,1.875072739481245,0.657502762474204,0.681877946075417,1.8528766632080078,0.0
694,2,194,-1,1,-0.9977341293981588,0.20723388097010395,1.875072739481245,0.657502762474204,0.681877946075417,8.650483131408691,1.0
695,2,195,-1,-1,-0.29762294884093277,0.3161139433753553,1.875072739481245,0.4842436039364466,0.681877946075417,2.373900890350342,1.0
696,2,196,-1,1,3.1644756837872605,0.8545334482226736,1.875072739481245,0.657502762474204,0.681877946075417,2.448904514312744,1.0
697,2,197,1,1,-0.6406489681357119,-1.4621726408586657,1.875072739481245,0.657502762474204,0.681877946075417,2.2708961963653564,0.0
698,2,198,-1,-1,-1.45808604640451,0.13564075855755361,1.875072739481245,0.4842436039364466,0.681877946075417,5.00474739074707,1.0
699,2,199,1,1,0.8502230322647011,-1.230314843197669,1.875072739481245,0.657502762474204,0.681877946075417,3.0808863639831543,0.0
700,2,200,1,-1,-2.535197130328067,-1.7568094469229234,1.875072739481245,0.4842436039364466,0.681877946075417,2.789907455444336,0.0
701,2,201,-1,1,0.25792072789271026,0.4025111212399612,1.875072739481245,0.657502762474204,0.681877946075417,2.5989115238189697,1.0
702,2,202,1,-1,-1.6327757060632484,-1.6164664503840216,1.875072739481245,0.4842436039364466,0.681877946075417,1.1268757581710815,0.0
703,2,203,1,1,1.815469392633453,-1.0802014228267152,1.875072739481245,0.657502762474204,0.681877946075417,1.2908737659454346,1.0
704,2,204,1,-1,-0.6157911174041084,-1.458306791527759,1.875072739481245,0.4842436039364466,0.681877946075417,2.4999070167541504,0.0
705,2,205,1,-1,-2.3219617176373055,-1.7236474496779988,1.875072739481245,0.4842436039364466,0.681877946075417,2.3208985328674316,0.0
706,2,206,-1,1,1.9570919577681973,0.6667632495930644,1.875072739481245,0.657502762474204,0.681877946075417,3.6298465728759766,1.0
707,2,207,-1,-1,1.0812892012971198,0.5305599415650938,1.875072739481245,0.4842436039364466,0.681877946075417,2.9018993377685547,1.0
708,2,208,1,-1,-2.249610661925134,-1.7123955404387303,1.875072739481245,0.4842436039364466,0.681877946075417,1.1268757581710815,0.0
709,2,209,1,1,0.47425435342792155,-1.2887848324664983,1.875072739481245,0.657502762474204,0.681877946075417,3.0328898429870605,0.0
710,2,210,1,-1,-0.17095289124673785,-1.389126331096165,1.875072739481245,0.4842436039364466,0.681877946075417,1.6208693981170654,0.0
711,2,211,1,-1,-1.514522011657216,-1.598075843314538,1.875072739481245,0.4842436039364466,0.681877946075417,2.5939111709594727,0.0
712,2,212,-1,-1,-1.0869460627217737,0.19335979762831626,1.875072739481245,0.4842436039364466,0.681877946075417,3.829832077026367,1.0
713,2,213,1,1,0.6475773917341711,-1.261829937656745,1.875072739481245,0.657502762474204,0.681877946075417,1.2638740539550781,0.0
714,2,214,1,1,1.3088592024413757,-1.1589885507216697,1.875072739481245,0.657502762474204,0.681877946075417,1.7178703546524048,0.0
715,2,215,-1,1,0.44225368845682267,0.4311782598415633,1.875072739481245,0.657502762474204,0.681877946075417,6.794617652893066,1.0
716,2,216,-1,-1,-0.5333270307461027,0.2794576581170889,1.875072739481245,0.4842436039364466,0.681877946075417,3.280871868133545,0.0
717,2,217,1,-1,-2.1635555874358428,-1.6990124062439227,1.875072739481245,0.4842436039364466,0.681877946075417,1.2888736724853516,0.0
718,2,218,1,-1,-0.30858925048620867,-1.410531296192277,1.875072739481245,0.4842436039364466,0.681877946075417,1.5498703718185425,0.0
719,2,219,1,1,0.014273651375177998,-1.3603202241807866,1.875072739481245,0.657502762474204,0.681877946075417,1.8118747472763062,0.0
720,2,220,-1,1,2.575928824502554,0.7630036733141645,1.875072739481245,0.657502762474204,0.681877946075417,1.3078734874725342,1.0
721,2,221,1,1,1.5928610487450885,-1.1148210818860147,1.875072739481245,0.657502762474204,0.681877946075417,2.790907382965088,0.0
722,2,222,-1,-1,0.011170007301820606,0.3641368821154072,1.875072739481245,0.4842436039364466,0.681877946075417,2.9908928871154785,1.0
723,2,223,1,-1,0.5113999490706598,-1.2830080146067369,1.875072739481245,0.4842436039364466,0.681877946075417,2.5739102363586426,0.0
724,2,224,-1,1,1.7754610493046785,0.6385163293932035,1.875072739481245,0.657502762474204,0.681877946075417,2.792907238006592,1.0
725,2,225,1,1,0.019057357790039586,-1.3595762705525016,1.875072739481245,0.657502762474204,0.681877946075417,2.396902084350586,0.0
726,2,226,-1,1,1.303463594284626,0.5651121133416895,1.875072739481245,0.657502762474204,0.681877946075417,1.6258693933486938,0.0
727,2,227,1,-1,-1.414846493971899,-1.5825744816919234,1.875072739481245,0.4842436039364466,0.681877946075417,1.8638771772384644,0.0
728,2,228,-1,-1,-0.11643032865742786,0.3442927017509166,1.875072739481245,0.4842436039364466,0.681877946075417,6.327651500701904,1.0
729,2,229,-1,1,0.32159508325082575,0.41241364526405666,1.875072739481245,0.657502762474204,0.681877946075417,2.167891502380371,1.0
730,2,230,1,-1,-2.9657618047515077,-1.8237701096328216,1.875072739481245,0.4842436039364466,0.681877946075417,0.9638779163360596,0.0
731,2,231,-1,-1,-2.009733937176976,0.049849446490195626,1.875072739481245,0.4842436039364466,0.681877946075417,1.9898830652236938,1.0
732,2,232,-1,1,1.5668173907903054,0.6060684337012305,1.875072739481245,0.657502762474204,0.681877946075417,1.1968748569488525,1.0
733,2,233,1,-1,-3.5018939005349585,-1.9071484324870571,1.875072739481245,0.4842436039364466,0.681877946075417,1.3958723545074463,0.0
734,2,234,1,1,1.4288031679612114,-1.1403350756542685,1.875072739481245,0.657502762474204,0.681877946075417,4.40479040145874,0.0
735,2,235,1,1,0.2207050461868859,-1.3282163758582777,1.875072739481245,0.657502762474204,0.681877946075417,2.648913860321045,0.0
736,2,236,-1,1,1.590686488744526,0.6097805139350359,1.875072739481245,0.657502762474204,0.681877946075417,2.763909339904785,1.0
737,2,237,1,1,0.42608384816282574,-1.2962762249267383,1.875072739481245,0.657502762474204,0.681877946075417,1.6258693933486938,0.0
738,2,238,1,-1,-2.8262983330629456,-1.802080995214426,1.875072739481245,0.4842436039364466,0.681877946075417,2.111888885498047,0.0
739,2,239,-1,-1,0.4519103725637672,0.43268005041053426,1.875072739481245,0.4842436039364466,0.681877946075417,1.2348744869232178,0.0
740,2,240,-1,-1,0.011272312745581603,0.36415279247851867,1.875072739481245,0.4842436039364466,0.681877946075417,1.4958710670471191,0.0
741,2,241,1,-1,-0.09432658258477311,-1.3772095420193808,1.875072739481245,0.4842436039364466,0.681877946075417,1.4978710412979126,0.0
742,2,242,-1,1,2.3730478558067,0.7314519810317173,1.875072739481245,0.657502762474204,0.681877946075417,1.1208758354187012,1.0
743,2,243,-1,-1,-1.0460389830590748,0.19972159488306984,1.875072739481245,0.4842436039364466,0.681877946075417,4.174807071685791,1.0
744,2,244,-1,1,1.5786467324169204,0.607908112155578,1.875072739481245,0.657502762474204,0.681877946075417,1.3268733024597168,1.0
745,2,245,1,1,0.8878620407398591,-1.2244612906399377,1.875072739481245,0.657502762474204,0.681877946075417,1.9358805418014526,0.0
746,2,246,-1,1,1.6500828712421047,0.6190177351258692,1.875072739481245,0.657502762474204,0.681877946075417,2.940896511077881,1.0
747,2,247,-1,-1,-2.7940078585870394,-0.07211945770295647,1.875072739481245,0.4842436039364466,0.681877946075417,1.3518729209899902,1.0
748,2,248,-1,-1,-1.7007004544354902,0.09790979150486123,1.875072739481245,0.4842436039364466,0.681877946075417,4.133810043334961,0.0
749,2,249,1,-1,-0.5636624747594858,-1.4501998364870894,1.875072739481245,0.4842436039364466,0.681877946075417,1.894878625869751,0.0
750,2,250,1,1,1.8585793331230622,-1.0734970405212372,1.875072739481245,0.657502762474204,0.681877946075417,1.341873049736023,0.0
751,2,251,-1,-1,-0.8283604587206149,0.23357457705568818,1.875072739481245,0.4842436039364466,0.681877946075417,2.915898323059082,1.0
752,2,252,1,1,-0.8842980236391131,-1.5000645144709062,1.875072739481245,0.657502762474204,0.681877946075417,2.5099072456359863,0.0
